aX,aY,aZ,gX,gY,gZ
-0.525,-0.968,1.432,17.517,76.050,-25.391
-0.614,-1.170,1.336,19.226,93.201,-21.790
-0.694,-1.350,1.238,24.170,96.680,-11.841
-0.745,-1.452,1.140,29.114,90.637,4.639
-0.764,-1.587,1.044,31.372,82.947,26.367
-0.719,-1.646,0.953,27.954,77.209,45.227
-0.677,-1.638,0.846,19.104,71.899,62.622
-0.672,-1.566,0.711,6.165,65.613,82.458
-0.676,-1.442,0.613,-7.568,56.152,106.445
-0.641,-1.254,0.542,-17.578,45.105,133.179
-0.610,-1.043,0.490,-22.949,32.471,161.804
-0.549,-0.781,0.406,-26.428,22.888,189.697
-0.417,-0.375,0.269,-29.236,18.799,213.135
-0.299,0.189,0.114,-31.799,20.386,226.379
-0.278,0.653,0.039,-35.095,21.179,225.586
-0.229,1.010,0.024,-42.480,16.846,215.576
-0.123,1.275,0.027,-49.194,11.719,205.688
-0.108,1.465,0.042,-47.241,11.536,198.669
-0.192,1.607,0.030,-37.537,16.174,189.087
-0.208,1.696,-0.064,-29.907,25.635,180.237
-0.185,1.835,-0.111,-34.912,25.452,183.105
-0.001,2.116,0.008,-52.612,5.554,203.430
0.242,2.414,0.334,-76.965,-29.358,223.816
0.449,2.643,0.851,-102.966,-69.824,219.727
0.795,2.776,1.453,-119.507,-85.815,193.970
1.105,2.751,1.958,-114.990,-66.772,160.217
1.331,2.668,2.107,-88.135,-25.330,121.948
1.386,2.444,1.955,-41.443,23.987,81.543
1.225,2.109,1.614,7.385,53.711,38.330
1.002,1.791,1.274,45.288,56.519,-4.272
0.789,1.502,1.000,71.533,39.917,-36.743
0.537,1.249,0.819,87.708,11.169,-57.373
0.372,1.131,0.697,93.384,-17.029,-74.097
0.235,1.070,0.618,91.492,-36.377,-85.022
0.162,1.018,0.562,85.205,-43.518,-92.346
0.134,0.948,0.531,77.393,-35.339,-96.313
0.118,0.922,0.510,65.979,-20.752,-97.900
0.078,0.920,0.514,50.354,-8.179,-99.548
0.006,0.942,0.555,37.170,-1.343,-99.304
0.011,1.006,0.639,30.762,1.465,-95.459
0.078,1.039,0.737,32.654,1.709,-92.896
0.111,1.058,0.818,44.250,-2.563,-94.238
0.119,0.997,0.853,61.584,-8.362,-97.534
0.072,0.906,0.835,79.834,-9.705,-100.037
0.028,0.827,0.760,93.933,-6.042,-101.257
0.008,0.753,0.674,100.586,-1.892,-100.464
0.015,0.647,0.610,99.731,-1.526,-99.976
0.002,0.533,0.581,92.224,-5.188,-100.708
0.026,0.400,0.585,79.285,-11.292,-102.295
0.035,0.245,0.573,61.890,-14.709,-103.394
0.044,0.066,0.559,42.542,-17.151,-104.736
0.056,-0.108,0.569,24.719,-23.376,-105.774
0.055,-0.237,0.595,10.742,-32.471,-103.760
0.002,-0.286,0.664,1.343,-42.786,-97.168
-0.058,-0.316,0.779,-3.662,-54.626,-87.036
-0.101,-0.372,0.863,-2.686,-62.073,-76.172
-0.158,-0.374,0.921,0.732,-66.040,-65.063
-0.211,-0.336,0.979,0.854,-71.594,-53.711
-0.264,-0.290,1.065,-3.662,-74.036,-41.809
-0.250,-0.298,1.138,-13.062,-67.505,-30.640
-0.187,-0.331,1.180,-23.499,-49.194,-21.667
-0.121,-0.366,1.231,-32.654,-25.696,-21.790
-0.106,-0.406,1.236,-37.170,0.366,-31.006
-0.123,-0.470,1.216,-33.936,25.513,-43.457
-0.175,-0.514,1.195,-24.780,46.448,-51.636
-0.179,-0.594,1.177,-15.869,56.030,-55.969
-0.203,-0.661,1.166,-11.536,54.993,-60.974
-0.265,-0.682,1.163,-9.705,48.828,-65.186
-0.326,-0.716,1.182,-5.493,43.884,-64.026
-0.369,-0.763,1.191,-0.671,40.588,-56.030
-0.392,-0.810,1.173,1.526,38.147,-46.997
-0.413,-0.849,1.151,1.343,36.377,-39.490
-0.422,-0.847,1.121,-0.183,36.072,-30.823
-0.404,-0.836,1.083,-3.052,37.109,-20.264
-0.364,-0.783,1.037,-7.080,38.635,-8.118
-0.291,-0.732,1.001,-12.207,38.635,2.808
-0.209,-0.667,0.971,-17.456,36.499,13.916
-0.124,-0.554,0.954,-23.010,30.396,24.902
-0.018,-0.414,0.944,-27.344,20.874,33.936
0.073,-0.294,0.987,-26.917,10.193,38.574
0.114,-0.198,1.043,-20.752,0.183,38.757
0.153,-0.142,1.044,-10.193,-5.066,35.156
0.182,-0.115,1.012,2.380,-4.333,29.480
0.179,-0.111,0.981,12.695,-3.845,24.597
0.155,-0.101,0.958,17.761,-4.639,23.987
0.168,-0.092,0.897,19.226,-4.578,27.649
0.198,-0.072,0.868,16.174,-7.263,31.616
0.220,-0.042,0.887,8.423,-14.038,33.447
0.231,-0.008,0.890,2.258,-18.005,35.400
0.257,0.039,0.892,-0.732,-18.982,36.865
0.274,0.084,0.926,-2.014,-20.752,34.607
0.300,0.126,0.940,-1.099,-22.095,30.518
0.341,0.171,0.946,1.465,-20.874,25.818
0.356,0.190,0.958,6.104,-19.897,18.188
0.339,0.168,0.958,13.306,-19.653,8.667
0.310,0.138,0.946,20.630,-18.799,0.610
0.289,0.097,0.920,26.123,-15.564,-3.784
0.267,0.073,0.904,27.893,-13.916,-7.324
0.243,0.047,0.873,26.428,-12.512,-9.583
0.241,0.016,0.833,22.888,-8.545,-8.911
0.234,-0.015,0.811,17.090,-4.822,-6.348
0.228,-0.051,0.809,10.620,-3.418,-3.357
0.231,-0.063,0.844,4.578,-3.357,-1.770
0.210,-0.064,0.883,0.122,-5.920,-1.648
0.195,-0.043,0.918,-3.418,-11.719,-1.526
0.195,-0.006,0.959,-5.798,-20.996,-1.587
0.198,0.016,0.999,-6.470,-28.503,-0.916
0.187,0.040,1.043,-7.202,-34.241,-0.610
0.194,0.091,1.078,-7.324,-37.476,-1.953
0.204,0.127,1.129,-4.150,-38.330,-5.615
0.182,0.141,1.175,1.648,-38.147,-11.292
0.156,0.138,1.173,8.301,-34.973,-15.747
0.146,0.134,1.161,12.817,-27.649,-18.250
0.129,0.120,1.140,15.503,-18.311,-18.616
0.124,0.093,1.112,16.479,-8.789,-17.456
0.135,0.081,1.083,16.052,-0.610,-15.076
0.140,0.068,1.047,16.785,5.188,-12.207
0.141,0.042,1.021,18.372,7.446,-9.888
0.152,0.020,1.002,18.982,6.531,-8.179

-0.285,-0.994,1.311,-3.723,18.250,9.033
-0.280,-1.056,1.269,-0.183,20.447,15.564
-0.281,-1.111,1.207,3.723,23.804,23.315
-0.280,-1.151,1.138,5.371,23.437,29.785
-0.307,-1.165,1.085,5.432,18.860,34.546
-0.351,-1.156,1.051,4.395,13.611,39.612
-0.405,-1.150,1.002,4.761,14.526,44.983
-0.449,-1.147,0.906,8.057,23.010,49.927
-0.482,-1.145,0.787,9.460,33.020,57.129
-0.532,-1.117,0.665,7.751,38.025,67.993
-0.597,-1.038,0.530,5.615,37.537,81.726
-0.630,-0.919,0.384,4.089,32.288,101.257
-0.650,-0.772,0.240,1.892,21.973,126.465
-0.671,-0.520,0.109,-2.502,8.850,153.137
-0.659,-0.192,-0.034,-10.254,-3.784,177.490
-0.617,0.257,-0.217,-21.912,-12.512,199.341
-0.631,0.746,-0.320,-40.161,-22.278,217.529
-0.636,1.216,-0.257,-68.420,-36.865,227.234
-0.534,1.598,-0.075,-98.572,-49.011,226.990
-0.461,2.054,0.095,-116.699,-49.622,221.008
-0.367,2.453,0.238,-125.977,-40.588,213.379
-0.150,2.725,0.388,-133.179,-25.940,206.726
0.212,2.915,0.650,-143.677,-10.559,201.904
0.492,2.970,1.030,-153.015,-3.418,190.125
0.731,2.989,1.434,-151.306,6.348,168.518
0.935,2.928,1.736,-135.132,21.545,143.555
1.144,2.788,1.864,-108.704,36.865,114.197
1.281,2.591,1.780,-70.557,53.101,79.468
1.257,2.229,1.515,-25.330,58.350,38.574
1.080,1.906,1.216,18.738,53.894,-3.479
0.873,1.643,0.946,52.856,44.495,-40.100
0.672,1.412,0.747,75.256,27.588,-64.941
0.493,1.282,0.632,85.205,2.258,-82.214
0.368,1.232,0.581,83.862,-26.550,-98.633
0.233,1.147,0.561,76.538,-45.166,-109.497
0.152,1.049,0.568,67.261,-51.270,-116.150
0.113,1.016,0.586,57.983,-48.767,-117.981
0.094,1.034,0.579,49.438,-43.091,-114.014
0.099,1.117,0.561,41.992,-41.321,-109.192
0.083,1.168,0.635,38.086,-49.194,-110.779
0.049,1.175,0.724,42.969,-66.162,-116.211
0.041,1.131,0.776,57.556,-81.787,-115.051
-0.001,1.061,0.802,75.623,-89.966,-107.666
0.011,1.019,0.796,85.205,-84.534,-102.417
0.036,0.953,0.764,90.698,-74.097,-104.248
0.033,0.839,0.741,92.468,-65.979,-109.253
-0.013,0.651,0.697,92.102,-52.551,-113.586
-0.038,0.438,0.619,90.149,-32.043,-117.126
-0.078,0.245,0.569,84.229,-19.531,-122.498
-0.102,0.060,0.539,74.463,-18.127,-125.977
-0.119,-0.099,0.542,62.988,-22.888,-126.648
-0.146,-0.185,0.563,48.279,-32.837,-126.831
-0.180,-0.261,0.622,31.555,-43.701,-127.197
-0.245,-0.359,0.759,16.174,-49.988,-126.038
-0.329,-0.423,0.916,4.150,-51.758,-122.620
-0.399,-0.471,1.016,2.136,-47.668,-118.164
-0.450,-0.538,1.094,10.559,-38.635,-111.267
-0.488,-0.578,1.157,20.569,-27.283,-101.868
-0.481,-0.645,1.187,26.062,-13.489,-91.675
-0.469,-0.726,1.188,28.320,-0.244,-82.581
-0.479,-0.757,1.154,29.175,8.301,-76.172
-0.488,-0.765,1.145,28.320,11.536,-69.763
-0.481,-0.775,1.151,28.503,13.367,-64.270
-0.479,-0.806,1.149,29.785,16.907,-58.289
-0.476,-0.819,1.132,31.555,24.048,-51.453
-0.457,-0.833,1.095,33.752,33.875,-45.410
-0.441,-0.853,1.063,35.889,43.091,-40.283
-0.410,-0.872,1.046,36.865,50.476,-33.691
-0.306,-0.881,0.977,37.964,57.251,-24.109
-0.096,-0.914,0.828,41.626,64.148,-11.841
0.148,-0.897,0.655,43.579,66.162,-0.977
0.334,-0.812,0.522,35.217,54.382,0.610
0.364,-0.710,0.509,16.113,26.917,-10.498
0.206,-0.570,0.644,-9.705,-13.794,-30.029
-0.058,-0.450,0.839,-32.471,-57.922,-47.058
-0.348,-0.332,1.103,-44.678,-91.431,-51.758
-0.544,-0.188,1.358,-45.898,-104.797,-38.452
-0.584,-0.125,1.526,-35.156,-91.675,-14.099
-0.464,-0.114,1.546,-17.822,-60.120,5.432
-0.299,-0.088,1.428,-0.183,-24.109,13.000
-0.182,-0.074,1.255,13.367,5.920,10.742
-0.096,-0.081,1.093,19.836,29.968,7.141
-0.009,-0.105,0.946,21.362,48.584,6.592
0.066,-0.129,0.829,20.569,56.274,9.583
0.143,-0.133,0.735,18.921,53.162,15.503
0.221,-0.103,0.671,16.785,44.128,22.278
0.280,-0.071,0.640,13.733,33.325,27.832
0.318,-0.030,0.647,8.667,22.217,28.748
0.324,0.003,0.700,0.732,9.583,24.231
0.297,0.014,0.773,-7.446,-1.404,16.541
0.236,0.012,0.842,-13.062,-9.766,7.385
0.147,-0.000,0.917,-16.541,-15.930,0.061
0.084,-0.021,0.983,-17.395,-18.982,-3.479
0.065,-0.028,1.030,-16.235,-18.433,-3.723
0.075,-0.034,1.063,-14.648,-13.855,-2.869
0.095,-0.044,1.094,-13.245,-8.301,-3.296
0.099,-0.051,1.107,-11.169,-5.005,-5.432
0.097,-0.059,1.116,-7.568,-2.930,-6.836
0.089,-0.069,1.130,-4.150,-2.625,-6.226
0.091,-0.071,1.130,-0.549,-2.014,-3.845
0.102,-0.065,1.120,1.587,-0.488,-1.587
0.119,-0.053,1.106,2.502,1.709,-0.549
0.127,-0.043,1.100,2.258,3.967,-0.427
0.127,-0.037,1.090,2.869,5.493,-0.793
0.116,-0.035,1.062,5.310,6.775,-1.221
0.108,-0.045,1.031,7.812,7.751,-1.892
0.101,-0.059,1.001,9.155,7.202,-2.808
0.095,-0.073,0.969,9.888,6.897,-3.052
0.096,-0.080,0.939,9.705,5.737,-2.380
0.098,-0.083,0.930,8.240,3.662,-1.709
0.095,-0.088,0.929,6.714,1.465,-1.770
0.083,-0.086,0.932,5.249,-0.610,-2.197
0.072,-0.083,0.943,4.150,-2.563,-1.770
0.064,-0.077,0.954,4.150,-3.357,-1.099
0.067,-0.068,0.951,3.967,-1.892,-0.854
0.082,-0.050,0.945,3.540,0.610,-0.916
0.089,-0.041,0.949,2.930,3.235,-1.038
0.081,-0.044,0.961,3.601,5.432,-1.038
0.078,-0.054,0.965,6.165,6.653,-0.854

-0.406,-1.062,1.249,-0.610,39.551,-9.460
-0.451,-1.194,1.200,0.366,43.213,-3.052
-0.472,-1.285,1.122,0.732,40.405,7.141
-0.488,-1.340,1.070,-0.427,30.762,20.569
-0.490,-1.367,1.035,-4.456,17.944,35.583
-0.491,-1.359,0.993,-9.827,8.484,49.377
-0.473,-1.313,0.938,-15.076,5.005,62.378
-0.471,-1.326,0.884,-19.592,6.042,72.876
-0.490,-1.329,0.804,-23.315,9.583,78.674
-0.520,-1.283,0.697,-25.024,12.756,85.327
-0.567,-1.223,0.592,-27.649,11.963,96.497
-0.581,-1.080,0.486,-33.508,7.996,111.694
-0.549,-0.865,0.375,-40.771,1.648,128.540
-0.552,-0.632,0.296,-48.462,-9.216,144.592
-0.500,-0.304,0.203,-57.495,-23.193,156.067
-0.423,0.061,0.142,-65.613,-36.316,162.537
-0.429,0.382,0.166,-70.740,-50.659,164.490
-0.451,0.685,0.204,-73.242,-61.768,162.720
-0.442,1.046,0.185,-71.167,-61.279,161.865
-0.423,1.383,0.151,-68.298,-54.810,163.818
-0.419,1.690,0.126,-73.303,-46.265,167.053
-0.339,1.973,0.158,-90.271,-33.997,169.556
-0.233,2.215,0.254,-113.037,-23.743,170.410
-0.057,2.419,0.473,-132.202,-21.423,172.058
0.158,2.612,0.854,-147.644,-30.884,175.903
0.398,2.788,1.292,-159.363,-35.522,174.011
0.631,2.843,1.703,-154.907,-10.681,163.940
0.908,2.763,1.906,-133.789,28.625,141.724
1.153,2.582,1.857,-93.384,71.472,110.535
1.285,2.328,1.588,-40.283,100.525,75.378
1.318,2.065,1.249,7.263,106.628,36.194
1.253,1.775,0.950,40.588,96.313,-1.587
1.087,1.518,0.744,61.035,74.219,-32.166
0.889,1.312,0.635,72.083,43.152,-54.260
0.682,1.165,0.594,76.172,8.484,-70.923
0.506,1.091,0.600,74.463,-19.226,-83.496
0.370,1.027,0.639,67.627,-32.593,-91.858
0.300,0.983,0.676,58.105,-32.959,-97.961
0.219,0.953,0.706,50.293,-25.757,-104.065
0.115,0.935,0.758,46.143,-21.118,-109.558
0.019,0.945,0.828,49.316,-23.743,-113.647
-0.068,0.933,0.889,62.439,-29.846,-115.906
-0.087,0.916,0.886,80.750,-32.349,-114.136
-0.055,0.868,0.837,94.971,-27.771,-108.154
-0.018,0.841,0.783,99.670,-20.203,-103.149
0.045,0.824,0.756,96.008,-15.991,-102.051
0.037,0.779,0.735,92.041,-11.475,-100.647
0.113,0.629,0.703,87.402,-3.296,-98.755
0.136,0.481,0.699,80.139,0.183,-96.069
0.121,0.344,0.684,75.195,-1.526,-94.849
0.087,0.217,0.684,74.341,-7.507,-96.069
0.021,0.087,0.703,75.684,-16.418,-99.365
-0.071,-0.012,0.701,76.294,-24.780,-104.065
-0.132,-0.064,0.702,73.120,-30.640,-106.445
-0.173,-0.121,0.710,63.599,-32.349,-105.408
-0.195,-0.167,0.725,50.049,-32.288,-105.042
-0.201,-0.255,0.767,35.950,-31.189,-104.492
-0.247,-0.364,0.871,22.827,-29.297,-102.417
-0.285,-0.433,0.939,13.000,-23.987,-96.436
-0.292,-0.481,0.972,8.850,-17.273,-85.815
-0.317,-0.494,1.002,8.789,-15.625,-74.890
-0.323,-0.510,1.028,12.878,-14.282,-65.308
-0.335,-0.519,1.040,19.470,-10.376,-57.556
-0.372,-0.499,1.033,26.001,-6.653,-52.124
-0.390,-0.494,1.044,29.602,-2.747,-48.096
-0.402,-0.507,1.053,30.823,4.700,-44.556
-0.401,-0.517,1.024,32.837,15.015,-43.640
-0.411,-0.525,0.992,33.875,22.888,-43.152
-0.420,-0.553,0.968,33.813,28.992,-40.039
-0.378,-0.602,0.952,33.875,32.227,-34.119
-0.232,-0.704,0.882,33.325,35.767,-24.048
-0.011,-0.840,0.784,29.419,41.748,-10.742
0.239,-0.912,0.686,15.564,45.471,0.610
0.420,-0.915,0.665,-9.338,38.452,6.470
0.443,-0.776,0.726,-38.025,17.029,2.380
0.289,-0.570,0.849,-63.171,-21.606,-12.939
0.049,-0.372,1.018,-78.735,-68.726,-32.288
-0.246,-0.208,1.228,-83.740,-106.567,-47.791
-0.476,-0.026,1.351,-79.285,-121.887,-52.979
-0.526,0.089,1.404,-67.383,-111.755,-45.349
-0.468,0.082,1.415,-53.101,-85.022,-31.067
-0.355,0.041,1.347,-41.870,-50.354,-18.921
-0.248,0.025,1.247,-35.583,-15.137,-11.902
-0.116,0.033,1.161,-33.203,12.024,-2.625
0.019,0.040,1.094,-34.424,31.433,7.446
0.143,0.046,1.057,-37.598,45.959,11.353
0.220,0.034,1.025,-39.185,53.162,8.423
0.271,0.025,0.989,-36.194,53.833,5.249
0.338,0.019,0.974,-27.527,51.208,3.967
0.379,-0.009,0.933,-13.550,49.683,1.343
0.390,-0.047,0.908,0.916,44.495,-5.005
0.314,-0.084,0.934,11.414,32.288,-15.503
0.169,-0.115,0.985,17.761,20.447,-25.391
0.071,-0.145,1.005,23.376,13.916,-30.884
0.013,-0.183,1.001,28.503,10.681,-32.471
-0.034,-0.212,0.993,30.823,7.507,-32.288
-0.070,-0.234,0.974,29.846,2.930,-31.189
-0.082,-0.238,0.949,26.184,-2.014,-28.381
-0.069,-0.222,0.929,20.081,-5.859,-24.170
-0.050,-0.190,0.936,12.634,-7.935,-18.860
-0.022,-0.164,0.951,4.883,-8.789,-14.526
-0.005,-0.141,0.942,1.648,-9.460,-11.658
0.010,-0.111,0.920,2.563,-9.460,-10.803
0.011,-0.078,0.909,4.639,-8.728,-11.963
-0.004,-0.071,0.950,5.493,-7.751,-14.648
-0.038,-0.086,0.979,7.690,-5.554,-16.174
-0.056,-0.095,0.967,13.184,-3.540,-16.907
-0.054,-0.107,0.943,18.066,-3.479,-16.113
-0.050,-0.125,0.929,19.714,-2.747,-13.367
-0.052,-0.147,0.920,18.982,-0.122,-10.132
-0.049,-0.159,0.905,17.822,2.625,-6.470
-0.038,-0.166,0.895,15.320,4.028,-2.197
-0.019,-0.160,0.905,10.986,4.211,1.770
0.002,-0.153,0.914,6.470,3.845,5.127
0.021,-0.137,0.926,3.174,2.136,7.385
0.040,-0.103,0.940,0.000,-1.160,9.094
0.073,-0.083,0.953,-2.319,-2.625,10.315
0.086,-0.071,0.962,-3.723,-2.991,10.071
0.095,-0.051,0.969,-4.395,-3.601,10.010

-0.414,-0.876,1.371,21.912,29.907,5.249
-0.453,-1.014,1.312,27.161,44.067,2.686
-0.494,-1.159,1.248,31.738,53.284,2.441
-0.518,-1.277,1.165,34.546,55.725,4.211
-0.532,-1.383,1.093,36.011,51.147,11.597
-0.509,-1.443,1.034,36.194,38.879,24.719
-0.513,-1.451,0.970,33.081,19.714,40.344
-0.518,-1.412,0.896,27.771,0.244,56.885
-0.522,-1.387,0.837,22.522,-12.756,74.951
-0.534,-1.331,0.788,15.076,-20.752,93.811
-0.535,-1.236,0.724,3.845,-25.391,112.122
-0.518,-1.113,0.664,-10.803,-27.161,127.197
-0.516,-0.965,0.589,-27.283,-25.024,138.000
-0.498,-0.758,0.480,-40.771,-20.630,145.264
-0.495,-0.556,0.371,-50.049,-18.494,151.489
-0.511,-0.322,0.283,-57.678,-21.240,157.410
-0.507,-0.005,0.229,-62.439,-28.687,162.781
-0.507,0.350,0.204,-61.890,-39.124,169.678
-0.476,0.726,0.152,-58.167,-49.072,176.208
-0.425,1.055,0.079,-59.204,-54.993,178.955
-0.406,1.357,0.004,-69.336,-55.176,177.063
-0.421,1.670,-0.047,-84.351,-53.284,174.683
-0.353,2.029,0.021,-107.544,-53.650,175.232
-0.244,2.320,0.255,-140.991,-52.673,177.063
-0.055,2.544,0.581,-173.401,-43.091,178.162
0.145,2.756,0.941,-188.782,-36.255,173.462
0.365,2.887,1.296,-184.937,-29.297,162.720
0.630,2.914,1.629,-172.852,-23.926,145.813
0.887,2.856,1.884,-158.020,-10.681,120.300
1.099,2.682,1.935,-129.456,28.259,94.849
1.231,2.432,1.727,-78.918,79.041,67.688
1.245,2.180,1.362,-18.921,106.628,31.677
1.210,1.926,0.980,25.391,100.342,-6.531
1.102,1.658,0.695,53.955,77.087,-33.203
0.959,1.427,0.524,72.144,49.133,-51.270
0.799,1.279,0.427,81.421,18.982,-67.078
0.660,1.208,0.363,82.275,-6.287,-81.177
0.540,1.182,0.361,75.195,-21.301,-93.018
0.374,1.150,0.429,62.866,-28.503,-102.051
0.241,1.102,0.536,49.438,-30.518,-108.032
0.116,1.091,0.654,40.588,-29.663,-110.657
0.026,1.126,0.721,41.748,-28.076,-109.619
0.023,1.129,0.741,53.711,-26.184,-105.957
0.086,1.093,0.721,69.092,-24.902,-102.173
0.122,1.058,0.683,81.116,-24.597,-102.234
0.082,1.073,0.642,88.684,-28.320,-105.774
0.051,1.032,0.629,91.797,-33.875,-109.131
0.001,0.913,0.637,91.980,-35.339,-111.633
-0.074,0.794,0.642,90.820,-29.419,-112.915
-0.127,0.642,0.648,88.562,-18.799,-113.953
-0.137,0.380,0.677,83.923,-7.751,-116.150
-0.146,0.146,0.711,75.623,-0.977,-117.676
-0.175,-0.010,0.739,67.139,-0.793,-117.981
-0.217,-0.109,0.793,60.974,-6.958,-116.699
-0.253,-0.203,0.852,58.044,-14.709,-110.046
-0.275,-0.259,0.881,58.777,-19.592,-99.731
-0.274,-0.301,0.907,59.021,-23.743,-89.905
-0.264,-0.334,0.943,54.443,-24.658,-82.153
-0.290,-0.374,0.988,46.997,-22.156,-78.674
-0.328,-0.437,1.056,37.903,-18.005,-77.942
-0.340,-0.520,1.124,29.663,-10.498,-75.745
-0.367,-0.589,1.172,25.024,-2.930,-73.486
-0.382,-0.589,1.194,23.560,2.441,-73.120
-0.404,-0.625,1.237,23.010,8.789,-72.021
-0.432,-0.664,1.288,22.339,17.456,-67.139
-0.445,-0.666,1.304,25.269,28.198,-58.960
-0.425,-0.660,1.287,33.630,38.574,-50.781
-0.402,-0.666,1.264,42.847,47.668,-44.189
-0.329,-0.708,1.206,49.561,54.626,-40.894
-0.180,-0.824,1.104,55.603,63.354,-36.804
0.054,-0.947,0.944,57.190,71.472,-29.175
0.300,-1.031,0.783,52.917,72.998,-22.705
0.397,-1.022,0.674,42.053,57.678,-28.931
0.294,-0.890,0.675,24.048,20.752,-50.720
0.067,-0.689,0.796,3.052,-26.733,-74.341
-0.223,-0.545,1.005,-12.695,-64.575,-85.938
-0.544,-0.416,1.242,-19.470,-86.426,-85.999
-0.741,-0.305,1.401,-10.803,-84.717,-70.007
-0.704,-0.328,1.419,11.658,-60.852,-41.809
-0.531,-0.350,1.238,37.109,-27.161,-17.273
-0.361,-0.335,1.020,51.880,-1.465,-7.324
-0.257,-0.379,0.902,51.758,13.977,-5.005
-0.193,-0.414,0.818,44.983,26.123,-3.235
-0.124,-0.414,0.744,36.499,34.058,0.610
-0.041,-0.386,0.698,27.161,37.109,9.949
0.041,-0.359,0.648,20.264,36.987,20.386
0.130,-0.325,0.582,17.578,35.034,27.588
0.215,-0.281,0.545,15.259,30.579,32.654
0.285,-0.255,0.534,11.475,25.635,34.851
0.323,-0.249,0.554,5.310,18.799,30.151
0.315,-0.218,0.616,-3.662,7.935,19.592
0.318,-0.162,0.686,-13.733,-2.991,7.568
0.303,-0.135,0.791,-21.240,-13.367,-3.906
0.205,-0.140,0.936,-24.841,-23.682,-13.672
0.096,-0.146,1.066,-23.560,-28.381,-17.639
0.029,-0.156,1.158,-18.005,-24.231,-13.977
0.029,-0.161,1.190,-9.644,-14.954,-6.958
0.054,-0.173,1.152,-0.610,-5.432,-3.723
0.096,-0.177,1.095,3.662,1.099,-5.554
0.127,-0.205,1.056,3.052,8.484,-8.484
0.133,-0.226,1.016,1.221,15.747,-10.803
0.141,-0.241,0.984,0.854,18.860,-10.559
0.156,-0.249,0.957,0.549,18.250,-7.019
0.173,-0.227,0.936,-0.061,15.198,-3.174
0.185,-0.212,0.931,-1.404,10.437,-1.099
0.175,-0.193,0.933,-2.563,5.798,0.610
0.188,-0.167,0.941,-4.211,2.197,2.502
0.189,-0.148,0.952,-5.676,0.366,3.601
0.163,-0.131,0.976,-6.104,-1.953,2.197
0.148,-0.119,0.994,-5.066,-3.540,0.793
0.153,-0.110,1.010,-3.052,-3.845,0.916
0.152,-0.113,1.020,-0.366,-3.601,-0.061
0.142,-0.122,1.010,1.587,-2.014,-2.686
0.139,-0.134,1.000,2.319,0.671,-5.127
0.133,-0.158,1.010,1.404,2.075,-6.348
0.112,-0.172,1.002,0.671,1.160,-7.263
0.105,-0.182,0.985,1.953,0.671,-6.836
0.108,-0.190,0.968,2.441,-0.244,-4.578
0.111,-0.194,0.965,1.892,-1.526,-1.465

-0.406,-1.194,1.050,12.634,12.390,15.076
-0.436,-1.281,0.980,7.568,15.686,21.729
-0.463,-1.358,0.908,0.000,17.090,32.532
-0.478,-1.411,0.841,-8.911,14.709,45.593
-0.503,-1.389,0.778,-18.433,8.667,60.669
-0.549,-1.334,0.720,-26.794,1.709,77.576
-0.580,-1.283,0.668,-33.997,-3.845,95.093
-0.577,-1.225,0.609,-42.969,-7.996,113.403
-0.562,-1.139,0.540,-55.054,-11.230,131.836
-0.572,-0.964,0.469,-69.153,-16.663,149.597
-0.544,-0.663,0.389,-82.458,-23.437,165.955
-0.495,-0.281,0.332,-93.689,-32.227,176.270
-0.458,0.072,0.321,-98.816,-46.265,179.993
-0.412,0.457,0.322,-98.511,-61.157,179.077
-0.359,0.845,0.343,-93.384,-71.594,174.133
-0.327,1.159,0.416,-85.388,-77.698,166.016
-0.323,1.401,0.467,-77.576,-74.768,155.273
-0.351,1.634,0.441,-75.623,-55.176,141.663
-0.378,1.797,0.361,-83.435,-19.714,130.310
-0.354,1.917,0.265,-99.304,18.494,127.258
-0.179,2.045,0.193,-117.249,46.326,132.751
0.035,2.265,0.294,-133.545,49.561,141.785
0.305,2.584,0.561,-146.423,36.194,144.165
0.627,2.797,1.043,-159.729,14.648,143.677
0.915,2.911,1.519,-161.377,-0.061,134.338
1.155,2.888,1.802,-139.587,12.817,113.647
1.341,2.642,1.706,-90.332,54.871,81.116
1.328,2.278,1.381,-26.306,90.515,37.109
1.198,1.912,1.001,27.405,94.116,-6.592
0.996,1.528,0.738,62.744,73.792,-36.316
0.771,1.238,0.639,80.078,39.734,-53.406
0.576,1.101,0.623,82.703,2.991,-62.988
0.465,1.058,0.652,77.271,-24.902,-68.665
0.411,1.018,0.663,70.984,-32.898,-72.021
0.386,0.968,0.664,64.270,-29.358,-76.416
0.361,0.929,0.672,58.716,-22.583,-81.909
0.335,0.937,0.687,55.542,-17.944,-84.106
0.317,0.967,0.719,56.335,-20.508,-84.045
0.266,1.003,0.787,63.232,-32.104,-84.778
0.202,0.995,0.841,74.829,-47.424,-87.952
0.166,0.942,0.861,86.487,-54.871,-90.515
0.179,0.820,0.840,94.666,-46.448,-89.233
0.195,0.708,0.777,97.229,-30.396,-87.769
0.206,0.612,0.688,93.750,-17.883,-89.661
0.228,0.562,0.603,87.158,-12.146,-91.187
0.232,0.498,0.560,78.918,-14.343,-90.454
0.208,0.425,0.549,70.251,-20.935,-88.623
0.170,0.373,0.557,61.768,-29.358,-85.449
0.137,0.310,0.603,52.002,-37.476,-81.665
0.129,0.180,0.697,42.175,-42.969,-78.369
0.079,0.102,0.781,34.180,-46.021,-77.637
0.032,0.048,0.878,28.015,-49.683,-79.834
-0.008,-0.047,0.979,25.208,-49.500,-82.275
-0.041,-0.127,1.039,27.405,-44.189,-83.374
-0.071,-0.176,1.044,31.982,-37.842,-83.191
-0.099,-0.212,1.062,34.424,-36.804,-82.520
-0.194,-0.272,1.093,33.630,-39.063,-84.229
-0.284,-0.299,1.115,32.410,-39.124,-85.449
-0.365,-0.336,1.139,31.494,-35.706,-83.374
-0.403,-0.356,1.156,31.006,-29.541,-78.491
-0.411,-0.404,1.179,29.358,-20.813,-73.303
-0.391,-0.487,1.170,27.893,-9.338,-69.763
-0.371,-0.539,1.144,26.489,0.793,-69.275
-0.375,-0.556,1.137,22.766,6.165,-67.688
-0.409,-0.585,1.165,18.555,11.536,-64.148
-0.428,-0.613,1.177,18.005,18.188,-58.655
-0.427,-0.589,1.168,22.339,24.780,-49.438
-0.400,-0.556,1.154,30.396,31.189,-39.856
-0.363,-0.554,1.131,39.429,40.344,-34.302
-0.308,-0.605,1.063,48.096,52.185,-35.767
-0.225,-0.669,0.957,55.847,64.636,-39.917
-0.071,-0.738,0.798,59.692,75.989,-39.795
0.130,-0.803,0.640,58.411,83.984,-34.058
0.258,-0.862,0.519,51.270,81.848,-31.982
0.276,-0.803,0.475,34.119,61.401,-40.710
0.154,-0.662,0.568,10.803,25.635,-56.274
-0.041,-0.526,0.771,-10.986,-11.169,-69.519
-0.296,-0.465,1.022,-22.583,-40.894,-77.271
-0.524,-0.413,1.245,-19.897,-56.458,-71.533
-0.569,-0.338,1.343,-5.310,-53.589,-49.622
-0.501,-0.260,1.319,16.785,-41.443,-26.611
-0.378,-0.250,1.217,38.330,-26.489,-14.832
-0.249,-0.273,1.071,50.049,-9.521,-13.123
-0.170,-0.317,0.959,50.781,5.554,-14.526
-0.109,-0.353,0.860,43.579,18.127,-14.221
-0.053,-0.376,0.777,35.034,24.963,-9.094
0.013,-0.363,0.706,26.855,24.231,1.160
0.086,-0.321,0.662,18.982,17.883,14.038
0.152,-0.272,0.641,10.315,10.803,23.865
0.196,-0.223,0.648,0.366,5.737,28.442
0.234,-0.152,0.679,-10.315,2.075,28.015
0.250,-0.113,0.742,-19.836,-0.122,23.315
0.216,-0.098,0.821,-25.940,-2.075,16.418
0.187,-0.086,0.883,-27.588,-4.089,11.658
0.182,-0.075,0.927,-26.245,-5.615,8.789
0.167,-0.074,0.975,-23.560,-9.460,6.348
0.136,-0.091,1.029,-20.325,-12.817,4.211
0.116,-0.108,1.076,-17.334,-13.916,2.930
0.108,-0.115,1.108,-15.015,-12.756,3.052
0.111,-0.121,1.120,-13.306,-8.728,2.991
0.120,-0.131,1.105,-11.536,-3.174,1.892
0.134,-0.134,1.088,-10.132,0.916,0.305
0.141,-0.142,1.066,-8.362,3.906,-0.916
0.147,-0.146,1.042,-6.104,5.249,-1.343
0.148,-0.147,1.028,-3.845,6.165,-0.793
0.146,-0.142,1.021,-2.502,7.080,-0.549
0.149,-0.137,1.016,-1.282,8.789,-0.366
0.154,-0.131,1.013,-0.732,9.521,0.000
0.151,-0.120,1.001,-0.427,8.789,0.305
0.147,-0.118,0.984,1.099,7.629,0.122
0.154,-0.112,0.970,2.563,5.554,0.122
0.165,-0.106,0.972,2.319,2.869,0.671
0.169,-0.107,0.979,1.709,0.671,0.366
0.166,-0.101,0.989,1.343,-0.732,-0.610
0.153,-0.104,1.000,0.366,-2.075,-1.648
0.139,-0.107,1.002,0.122,-3.113,-2.319
0.124,-0.109,0.996,0.977,-2.808,-2.625
0.111,-0.117,0.983,1.770,-1.648,-2.686
0.104,-0.108,0.977,1.831,-0.549,-1.953

-0.026,2.448,0.587,-159.363,-43.274,138.611
0.143,2.435,0.660,-139.099,-14.221,121.277
0.345,2.356,0.702,-129.089,4.578,119.812
0.516,2.350,0.807,-130.798,7.324,124.023
0.711,2.475,1.025,-138.245,-3.601,124.268
0.899,2.584,1.341,-147.461,-25.269,112.244
1.058,2.655,1.666,-144.226,-30.029,88.562
1.107,2.511,1.870,-120.605,-11.292,56.030
1.060,2.260,1.829,-67.810,17.151,24.170
0.951,1.937,1.605,-2.014,38.147,-7.629
0.811,1.702,1.297,48.828,41.931,-40.833
0.681,1.483,1.037,79.590,36.560,-65.125
0.539,1.348,0.823,96.497,26.062,-78.735
0.488,1.280,0.659,105.530,13.062,-88.318
0.441,1.185,0.568,108.521,3.723,-94.666
0.386,1.068,0.523,105.713,0.366,-99.182
0.326,0.949,0.514,99.060,1.282,-102.661
0.290,0.883,0.511,89.905,1.892,-101.990
0.290,0.908,0.515,80.872,0.061,-95.642
0.301,0.934,0.547,73.242,-4.822,-89.600
0.308,0.941,0.562,68.115,-9.033,-88.257
0.318,0.953,0.546,66.284,-10.681,-87.891
0.319,0.950,0.514,66.833,-13.245,-86.304
0.319,0.938,0.495,67.322,-19.592,-84.717
0.294,0.891,0.496,66.711,-24.902,-83.801
0.250,0.781,0.510,64.880,-25.085,-85.388
0.203,0.636,0.538,62.134,-21.729,-89.539
0.159,0.472,0.573,59.937,-17.456,-91.492
0.128,0.271,0.608,59.265,-13.550,-91.858
0.073,0.114,0.623,59.082,-13.611,-92.468
0.053,-0.010,0.626,56.274,-15.259,-92.224
0.036,-0.145,0.638,52.368,-15.991,-90.698
-0.022,-0.263,0.656,48.218,-19.043,-90.332
-0.101,-0.334,0.677,43.762,-25.574,-91.187
-0.181,-0.377,0.728,36.743,-35.034,-88.928
-0.261,-0.434,0.815,27.954,-42.175,-84.839
-0.361,-0.485,0.911,20.325,-44.617,-80.688
-0.464,-0.485,0.989,12.939,-44.067,-77.026
-0.525,-0.511,1.085,6.470,-37.109,-71.899
-0.592,-0.556,1.195,1.099,-23.254,-67.505
-0.645,-0.584,1.275,-2.625,-5.249,-63.477
-0.663,-0.610,1.320,-3.723,10.925,-59.204
-0.681,-0.617,1.333,-2.258,24.597,-54.810
-0.674,-0.626,1.346,0.610,35.706,-46.753
-0.671,-0.655,1.356,6.409,46.204,-38.086
-0.635,-0.680,1.336,13.428,53.833,-31.250
-0.508,-0.749,1.286,19.531,62.012,-23.193
-0.265,-0.863,1.144,23.621,72.998,-14.709
0.010,-0.931,0.920,22.217,83.069,-7.751
0.202,-0.938,0.743,10.315,78.979,-5.554
0.252,-0.846,0.707,-14.038,52.673,-14.099
0.125,-0.658,0.823,-44.739,8.850,-27.710
-0.100,-0.470,1.020,-67.200,-38.269,-34.790
-0.364,-0.286,1.255,-75.989,-74.768,-33.936
-0.590,-0.089,1.472,-73.425,-90.515,-26.367
-0.588,0.004,1.570,-57.495,-79.956,-7.996
-0.363,0.100,1.547,-33.020,-50.964,11.414
-0.181,0.119,1.438,-6.226,-25.024,17.639
-0.067,0.091,1.276,20.081,-5.920,9.766
-0.025,0.048,1.119,41.260,5.066,-3.601
0.005,-0.031,1.007,52.002,14.282,-15.137
0.017,-0.097,0.905,53.345,26.672,-18.799
0.036,-0.133,0.807,48.401,37.476,-15.930
0.095,-0.152,0.717,41.199,42.053,-8.057
0.159,-0.160,0.636,35.034,40.039,2.380
0.221,-0.153,0.581,28.503,32.471,13.000
0.271,-0.129,0.565,18.982,21.973,20.874
0.286,-0.096,0.599,7.080,11.047,24.048
0.273,-0.061,0.674,-6.042,2.930,22.461
0.227,-0.033,0.765,-16.541,-4.211,16.968
0.187,-0.001,0.856,-23.621,-10.071,11.719
0.146,0.013,0.934,-27.405,-12.939,6.165
0.110,0.009,1.002,-27.161,-11.536,1.038
0.063,-0.010,1.068,-25.452,-10.559,-2.380
0.034,-0.026,1.118,-22.156,-9.460,-3.967
0.034,-0.045,1.134,-16.968,-5.493,-4.089
0.039,-0.068,1.122,-12.451,-0.732,-4.333
0.053,-0.083,1.087,-10.498,4.150,-4.639
0.075,-0.095,1.046,-10.132,8.606,-4.150
0.088,-0.099,1.004,-10.376,11.475,-2.686
0.099,-0.094,0.975,-11.780,12.573,-1.160
0.114,-0.073,0.950,-14.465,11.780,1.953
0.143,-0.042,0.932,-17.395,10.925,6.897
0.165,-0.013,0.923,-18.372,8.606,12.207
0.179,0.029,0.930,-17.822,4.211,16.113
0.191,0.069,0.934,-16.785,0.366,18.921
0.215,0.108,0.948,-16.541,-1.709,20.447
0.248,0.159,0.971,-18.127,-3.601,18.738
0.249,0.181,1.000,-18.860,-6.958,15.259
0.251,0.196,1.027,-16.174,-10.498,12.207
0.245,0.201,1.054,-12.146,-12.329,7.996
0.236,0.209,1.072,-7.568,-11.414,2.808
0.224,0.206,1.077,-2.502,-9.155,-1.709
0.209,0.186,1.068,2.014,-6.592,-5.981
0.183,0.158,1.057,5.188,-3.845,-9.705
0.156,0.128,1.052,7.141,-1.953,-11.536
0.134,0.108,1.044,8.179,-0.610,-11.414
0.127,0.087,1.033,9.766,0.183,-9.949
0.127,0.069,1.022,11.475,0.122,-8.118
0.127,0.061,1.007,11.963,0.793,-6.531
0.129,0.051,0.995,12.024,2.563,-6.104
0.128,0.040,0.977,11.108,3.845,-6.653
0.113,0.029,0.964,9.583,4.211,-6.470
0.108,0.025,0.954,8.789,3.540,-5.249
0.114,0.024,0.952,8.057,1.404,-4.211
0.113,0.021,0.955,7.507,-0.732,-3.479
0.115,0.027,0.954,7.141,-1.221,-3.479
0.116,0.022,0.959,6.531,-1.343,-4.639
0.114,0.012,0.960,5.432,0.000,-7.080
0.111,0.003,0.949,3.296,3.357,-10.681
0.104,-0.008,0.935,0.000,8.118,-14.343
0.095,-0.019,0.922,-3.235,12.634,-16.602
0.080,-0.030,0.914,-4.578,14.893,-16.602
0.062,-0.041,0.907,-3.845,13.733,-14.648
0.060,-0.064,0.913,-1.892,10.376,-10.986
0.043,-0.070,0.923,-2.136,6.042,-6.470
0.043,-0.072,0.926,-2.991,3.357,-2.502
0.058,-0.058,0.937,-5.127,2.808,1.221
0.073,-0.045,0.945,-7.996,3.113,4.700

-0.026,2.634,0.464,-164.673,-47.974,201.355
0.020,2.694,0.650,-158.936,-12.878,175.354
0.329,2.826,0.882,-157.532,2.502,181.763
0.779,3.006,1.269,-161.682,10.620,198.669
1.109,3.134,1.627,-157.715,11.841,187.927
1.346,3.118,1.836,-131.531,11.475,150.818
1.497,2.848,1.836,-82.214,28.015,109.802
1.513,2.490,1.584,-23.987,53.833,66.589
1.364,2.182,1.284,22.888,64.270,17.273
1.097,1.826,1.060,55.664,54.810,-27.466
0.844,1.500,0.897,81.177,37.048,-59.265
0.628,1.192,0.754,101.318,16.968,-78.674
0.430,0.976,0.616,112.000,-4.883,-93.750
0.312,0.792,0.522,111.694,-17.944,-104.675
0.250,0.632,0.482,101.074,-21.790,-109.680
0.200,0.529,0.490,82.825,-21.912,-112.671
0.144,0.476,0.539,62.988,-19.958,-112.488
0.086,0.463,0.608,47.791,-17.273,-107.544
0.061,0.481,0.660,40.527,-18.555,-99.609
0.086,0.538,0.711,37.537,-22.400,-91.675
0.084,0.613,0.776,36.804,-23.437,-86.487
0.059,0.682,0.810,40.161,-22.766,-84.900
0.047,0.702,0.804,47.058,-21.851,-86.060
0.050,0.667,0.795,53.467,-20.020,-89.111
0.054,0.617,0.775,55.542,-13.245,-92.102
0.078,0.523,0.739,54.016,-0.793,-95.215
0.129,0.380,0.669,51.941,13.123,-97.778
0.150,0.255,0.606,49.500,19.836,-99.060
0.157,0.166,0.575,44.861,14.709,-96.436
0.167,0.081,0.591,38.147,2.319,-89.905
0.126,0.021,0.625,29.663,-13.611,-83.252
0.062,0.055,0.687,20.081,-31.433,-77.087
0.019,0.138,0.811,9.094,-46.814,-69.885
-0.034,0.181,0.983,-0.244,-55.725,-65.186
-0.078,0.170,1.143,-3.662,-54.321,-65.063
-0.072,0.142,1.246,-1.038,-44.800,-67.261
-0.069,0.127,1.263,5.981,-31.616,-71.838
-0.071,0.103,1.224,14.038,-18.799,-77.881
-0.082,0.040,1.185,19.592,-8.057,-81.726
-0.109,-0.028,1.144,26.245,1.221,-81.238
-0.147,-0.094,1.089,35.461,4.211,-79.163
-0.209,-0.142,1.057,43.579,-0.305,-76.355
-0.263,-0.165,1.052,47.363,-6.226,-69.275
-0.282,-0.197,1.053,47.363,-7.751,-58.350
-0.268,-0.234,1.042,45.288,-2.380,-48.828
-0.228,-0.261,1.037,39.246,4.944,-40.161
-0.179,-0.298,1.031,30.579,13.916,-33.691
-0.159,-0.346,1.016,24.597,23.010,-32.471
-0.161,-0.387,1.002,21.545,29.175,-33.325
-0.140,-0.400,0.980,21.240,33.142,-32.776
-0.113,-0.407,0.944,23.132,36.072,-30.151
-0.098,-0.433,0.911,25.330,41.443,-27.954
-0.082,-0.464,0.886,25.757,46.143,-28.992
-0.012,-0.527,0.870,23.682,49.194,-28.992
0.104,-0.640,0.844,21.301,53.955,-26.062
0.241,-0.756,0.775,18.677,60.486,-23.010
0.392,-0.803,0.700,12.390,60.120,-21.790
0.468,-0.795,0.686,-0.610,45.776,-25.574
0.411,-0.691,0.729,-16.602,20.447,-35.339
0.185,-0.479,0.834,-30.396,-12.451,-51.086
-0.050,-0.375,0.958,-38.513,-43.884,-66.406
-0.296,-0.328,1.130,-40.649,-60.852,-72.510
-0.471,-0.301,1.281,-38.025,-62.195,-64.941
-0.519,-0.306,1.357,-27.954,-48.950,-44.495
-0.459,-0.335,1.323,-12.085,-30.640,-22.888
-0.350,-0.325,1.207,1.038,-13.916,-10.498
-0.245,-0.338,1.089,5.981,1.099,-5.310
-0.182,-0.371,1.007,5.005,13.123,-3.296
-0.113,-0.401,0.943,0.671,21.912,-0.610
-0.039,-0.422,0.893,-4.578,25.757,5.249
0.056,-0.408,0.848,-9.827,25.330,13.489
0.143,-0.356,0.807,-13.550,21.667,20.569
0.194,-0.302,0.813,-15.259,15.015,23.499
0.214,-0.258,0.841,-14.954,7.507,21.057
0.225,-0.220,0.882,-14.099,1.038,13.794
0.188,-0.199,0.923,-14.648,-3.540,4.150
0.145,-0.196,0.959,-15.503,-5.066,-3.540
0.124,-0.193,0.968,-15.991,-4.150,-8.789
0.148,-0.189,0.932,-16.418,-3.540,-11.658
0.173,-0.183,0.886,-17.761,-7.568,-13.489
0.150,-0.173,0.895,-21.057,-16.174,-13.672
0.105,-0.164,0.948,-25.940,-23.193,-8.301
0.108,-0.137,0.986,-28.564,-24.841,2.441
0.138,-0.077,1.005,-30.640,-24.841,13.306
0.182,-0.005,1.016,-32.471,-23.560,20.874
0.217,0.055,1.031,-33.997,-19.836,22.827
0.232,0.108,1.050,-33.569,-15.625,20.691
0.247,0.147,1.050,-29.541,-12.268,18.494
0.265,0.178,1.044,-23.376,-10.132,15.930
0.277,0.195,1.033,-17.151,-8.667,12.634
0.270,0.193,1.033,-11.719,-6.897,9.705
0.261,0.181,1.030,-7.568,-4.150,6.592
0.249,0.164,1.028,-4.395,-1.404,2.930
0.234,0.144,1.041,-2.075,0.671,-0.061
0.212,0.114,1.045,0.000,3.235,-2.075
0.194,0.087,1.047,2.136,4.578,-4.333
0.158,0.052,1.050,5.005,2.930,-7.202
0.127,0.020,1.045,7.935,0.671,-9.033
0.107,-0.008,1.026,9.888,-0.122,-9.460
0.099,-0.033,1.003,10.437,-0.244,-9.338
0.095,-0.045,0.982,9.399,0.488,-8.972
0.085,-0.057,0.965,7.751,0.916,-7.812
0.081,-0.064,0.950,6.470,0.366,-6.226
0.087,-0.062,0.931,6.226,-0.610,-3.906
0.101,-0.054,0.908,5.615,-1.709,-1.770
0.114,-0.046,0.893,4.456,-2.136,-0.427
0.130,-0.041,0.889,2.502,-1.587,0.793
0.149,-0.031,0.886,0.305,-0.305,1.831
0.163,-0.024,0.882,-1.404,0.549,2.075
0.177,-0.023,0.875,-2.625,0.793,1.709
0.190,-0.023,0.867,-4.333,1.038,0.977
0.194,-0.024,0.864,-6.775,1.038,0.488
0.192,-0.022,0.862,-9.460,0.671,-0.122
0.190,-0.019,0.881,-11.719,-0.671,-0.183
0.185,-0.004,0.917,-13.367,-4.272,0.916
0.182,0.012,0.958,-14.160,-8.484,2.625
0.174,0.029,0.991,-12.939,-11.719,3.479
0.163,0.042,1.021,-12.085,-13.184,2.991
0.151,0.061,1.037,-11.353,-12.573,1.831

-0.373,-1.012,1.188,70.007,55.969,5.127
-0.397,-1.105,1.064,79.468,57.129,3.845
-0.425,-1.201,0.930,87.036,51.208,6.775
-0.447,-1.272,0.810,90.332,37.598,12.878
-0.468,-1.332,0.714,88.318,20.447,23.499
-0.495,-1.366,0.631,79.224,2.991,35.828
-0.531,-1.380,0.566,65.063,-9.033,51.636
-0.551,-1.336,0.473,46.997,-14.954,72.266
-0.567,-1.248,0.388,26.062,-14.771,95.337
-0.569,-1.102,0.277,2.319,-11.047,120.117
-0.561,-0.917,0.165,-23.193,-6.409,145.325
-0.525,-0.684,0.054,-50.171,-4.333,172.791
-0.435,-0.369,-0.036,-74.829,-7.019,198.425
-0.308,-0.057,-0.109,-95.276,-16.174,215.149
-0.192,0.420,-0.174,-112.000,-28.503,221.313
-0.036,0.880,-0.165,-124.512,-41.870,214.600
0.080,1.232,-0.093,-132.019,-52.429,200.439
0.082,1.450,-0.010,-134.155,-58.838,185.120
-0.012,1.657,0.080,-133.850,-63.660,169.495
-0.023,1.867,0.144,-139.648,-62.378,160.828
0.141,2.105,0.225,-156.006,-53.406,163.879
0.394,2.328,0.372,-175.903,-44.617,168.152
0.601,2.537,0.589,-192.871,-45.837,160.767
0.729,2.746,0.883,-200.073,-62.561,142.090
0.845,2.838,1.272,-195.862,-80.994,118.042
0.918,2.750,1.655,-180.481,-86.426,92.712
0.932,2.593,1.935,-147.156,-69.885,66.467
0.918,2.377,1.982,-92.285,-31.494,39.246
0.867,2.147,1.780,-25.635,7.019,10.193
0.734,1.894,1.494,27.405,25.452,-21.851
0.611,1.602,1.239,60.547,29.724,-47.180
0.525,1.348,1.029,80.872,30.334,-60.913
0.431,1.119,0.856,91.858,24.292,-68.970
0.391,0.976,0.722,95.093,15.503,-77.393
0.347,0.901,0.627,91.064,6.226,-82.336
0.308,0.865,0.607,81.055,-2.319,-83.435
0.285,0.880,0.629,69.702,-5.920,-82.214
0.276,0.930,0.653,60.547,-8.362,-80.078
0.310,1.027,0.672,54.321,-14.038,-80.200
0.307,1.109,0.732,52.979,-22.705,-85.938
0.277,1.125,0.796,59.692,-27.466,-94.604
0.210,1.083,0.835,71.228,-25.940,-104.614
0.105,0.988,0.839,83.496,-21.912,-113.342
0.034,0.859,0.819,92.224,-16.235,-119.080
-0.027,0.728,0.783,96.436,-7.751,-120.422
-0.036,0.596,0.721,97.839,0.610,-116.333
-0.016,0.500,0.666,95.642,3.845,-109.375
-0.008,0.446,0.629,90.515,-0.244,-102.539
-0.022,0.391,0.642,84.290,-9.277,-96.130
-0.045,0.315,0.695,76.111,-19.409,-92.102
-0.070,0.234,0.760,68.604,-24.719,-89.844
-0.107,0.175,0.808,63.110,-23.560,-89.355
-0.133,0.138,0.848,58.594,-20.325,-88.440
-0.147,0.104,0.878,54.688,-15.869,-85.083
-0.144,0.044,0.911,52.917,-8.484,-81.604
-0.145,-0.047,0.950,52.795,-1.953,-80.017
-0.165,-0.156,0.996,53.772,0.916,-80.139
-0.217,-0.235,1.022,55.847,1.587,-80.444
-0.244,-0.315,1.022,60.669,2.441,-77.332
-0.250,-0.388,1.010,66.956,5.310,-72.144
-0.273,-0.434,0.982,72.205,7.080,-69.397
-0.305,-0.472,0.949,74.402,8.667,-67.871
-0.322,-0.502,0.938,72.876,11.963,-65.552
-0.369,-0.559,0.940,70.129,18.860,-62.195
-0.391,-0.622,0.918,67.444,27.283,-59.143
-0.378,-0.693,0.906,64.026,34.607,-54.749
-0.349,-0.745,0.889,58.594,39.001,-48.340
-0.309,-0.801,0.881,52.246,44.067,-40.344
-0.184,-0.904,0.856,45.044,49.805,-32.043
0.021,-1.057,0.798,36.682,56.702,-22.034
0.221,-1.189,0.720,25.391,61.401,-10.071
0.378,-1.209,0.675,6.409,53.894,-3.174
0.387,-1.092,0.735,-20.081,31.006,-6.836
0.228,-0.882,0.858,-48.828,-3.418,-20.264
-0.052,-0.627,1.002,-68.726,-40.771,-33.630
-0.328,-0.414,1.188,-76.599,-69.580,-43.884
-0.493,-0.302,1.347,-72.754,-77.209,-45.654
-0.530,-0.239,1.424,-55.664,-60.669,-35.522
-0.472,-0.244,1.419,-25.208,-35.645,-21.606
-0.342,-0.248,1.274,7.263,-15.198,-11.597
-0.214,-0.266,1.095,30.762,0.916,-9.338
-0.146,-0.310,0.966,42.664,12.024,-12.756
-0.097,-0.359,0.882,43.213,17.944,-14.526
-0.031,-0.379,0.822,35.339,24.780,-11.169
0.055,-0.369,0.770,25.574,30.884,-4.395
0.160,-0.337,0.716,18.127,33.386,2.991
0.270,-0.303,0.657,13.428,33.447,9.644
0.340,-0.273,0.620,9.827,30.457,11.414
0.369,-0.252,0.628,4.150,24.109,9.583
0.346,-0.248,0.686,-3.357,14.404,7.141
0.286,-0.247,0.782,-8.911,2.136,3.906
0.217,-0.239,0.866,-10.803,-9.033,1.038
0.155,-0.231,0.934,-10.681,-17.334,-0.488
0.103,-0.230,0.983,-8.911,-20.813,-0.854
0.076,-0.236,1.016,-7.263,-19.714,-0.977
0.080,-0.236,1.025,-7.080,-14.954,-1.099
0.098,-0.234,1.019,-7.751,-9.460,-1.465
0.111,-0.233,1.016,-7.935,-5.920,-2.136
0.112,-0.229,1.009,-6.653,-5.188,-2.380
0.122,-0.225,1.004,-4.089,-5.005,-1.587
0.130,-0.217,1.000,-1.648,-4.333,-0.183
0.139,-0.207,0.985,-0.183,-2.319,1.221
0.149,-0.202,0.962,0.183,0.977,2.014
0.154,-0.195,0.944,-1.038,4.150,2.441
0.149,-0.191,0.934,-2.563,5.493,3.601
0.143,-0.187,0.924,-2.319,4.395,5.127
0.145,-0.177,0.905,-1.221,2.380,6.958
0.159,-0.162,0.901,-1.892,0.305,8.667
0.156,-0.157,0.926,-4.028,-1.709,9.521
0.148,-0.149,0.948,-5.432,-3.418,8.545
0.149,-0.133,0.945,-5.188,-4.456,6.958
0.157,-0.121,0.958,-5.493,-4.761,6.836
0.158,-0.120,0.978,-6.531,-3.906,7.019
0.160,-0.114,0.996,-6.165,-2.075,5.676
0.157,-0.111,0.999,-4.639,-0.671,2.869
0.161,-0.113,0.974,-2.136,0.610,0.244
0.172,-0.118,0.950,0.061,0.732,-1.282
0.178,-0.132,0.935,1.099,0.305,-0.916
0.184,-0.139,0.922,1.709,0.183,0.732

-0.417,-1.131,1.086,30.029,34.546,5.066
-0.440,-1.213,1.009,31.738,36.865,9.949
-0.450,-1.267,0.922,30.884,36.133,20.020
-0.459,-1.311,0.852,26.367,32.288,32.898
-0.468,-1.321,0.780,19.409,25.024,45.410
-0.481,-1.307,0.721,10.559,15.198,57.312
-0.508,-1.272,0.698,0.793,5.615,69.458
-0.500,-1.212,0.656,-5.554,0.610,82.214
-0.507,-1.164,0.626,-8.911,-2.136,96.558
-0.541,-1.099,0.612,-16.479,-5.066,111.816
-0.556,-0.996,0.572,-26.184,-5.432,126.160
-0.567,-0.832,0.508,-39.001,-3.357,139.771
-0.550,-0.655,0.464,-54.810,1.160,151.917
-0.517,-0.422,0.427,-68.848,7.629,161.194
-0.456,-0.163,0.393,-78.064,14.771,169.128
-0.339,0.143,0.385,-79.834,18.860,174.866
-0.201,0.394,0.419,-69.275,18.616,172.546
-0.153,0.656,0.426,-48.889,14.099,162.842
-0.111,0.942,0.353,-29.114,7.629,151.978
-0.062,1.168,0.294,-15.747,2.747,141.785
-0.076,1.313,0.246,-14.038,-2.930,134.705
-0.091,1.435,0.184,-23.865,-9.399,134.338
0.016,1.643,0.176,-43.518,-18.250,142.517
0.209,1.950,0.289,-73.181,-30.579,154.358
0.417,2.195,0.518,-108.093,-48.584,163.086
0.570,2.357,0.870,-136.230,-66.772,159.790
0.672,2.517,1.283,-148.376,-75.928,150.146
0.850,2.602,1.626,-143.921,-74.402,137.756
1.030,2.595,1.904,-130.737,-55.115,116.943
1.122,2.451,2.000,-106.140,-18.799,91.370
1.164,2.210,1.878,-71.777,19.348,57.678
1.142,1.962,1.640,-33.875,42.053,22.095
1.070,1.753,1.372,0.671,48.340,-5.981
1.016,1.553,1.117,29.602,45.471,-27.466
0.912,1.355,0.931,51.636,34.424,-46.509
0.784,1.185,0.808,64.453,20.081,-64.453
0.658,1.062,0.723,70.435,9.460,-76.721
0.540,0.971,0.671,70.679,0.366,-83.252
0.476,0.930,0.628,66.833,-3.052,-86.121
0.456,0.886,0.592,60.242,-0.549,-86.487
0.431,0.855,0.561,51.880,0.244,-87.280
0.387,0.857,0.550,43.945,-6.531,-88.501
0.354,0.891,0.587,37.170,-21.912,-86.853
0.312,0.953,0.658,31.860,-36.926,-82.214
0.286,1.022,0.760,27.771,-46.631,-78.369
0.241,1.024,0.851,25.513,-48.096,-78.308
0.191,0.979,0.896,27.710,-38.086,-81.360
0.179,0.905,0.886,33.630,-23.437,-85.388
0.184,0.803,0.859,42.725,-13.306,-89.661
0.172,0.706,0.812,53.101,-11.536,-94.238
0.147,0.582,0.787,61.035,-18.860,-97.839
0.091,0.437,0.783,67.200,-29.541,-100.403
0.014,0.292,0.790,72.388,-39.063,-102.722
-0.062,0.159,0.804,75.195,-46.936,-103.882
-0.134,0.040,0.829,74.097,-52.063,-103.027
-0.155,-0.070,0.853,68.848,-50.903,-100.464
-0.161,-0.189,0.865,60.974,-43.701,-97.046
-0.172,-0.245,0.877,50.293,-37.903,-93.689
-0.217,-0.284,0.940,37.720,-36.255,-88.623
-0.261,-0.332,1.004,29.297,-32.043,-78.735
-0.273,-0.333,1.021,29.114,-23.804,-65.430
-0.266,-0.310,1.031,32.593,-19.043,-52.917
-0.274,-0.341,1.066,35.645,-17.151,-44.678
-0.290,-0.382,1.065,39.978,-10.803,-40.405
-0.278,-0.365,1.053,42.419,-3.174,-36.865
-0.218,-0.421,1.076,40.833,5.127,-33.020
-0.172,-0.491,1.088,40.039,19.409,-31.128
-0.160,-0.568,1.065,40.405,35.217,-33.752
-0.157,-0.575,1.037,39.307,47.058,-40.527
-0.144,-0.588,1.024,38.391,53.162,-45.898
-0.142,-0.660,1.014,41.199,59.326,-46.204
-0.089,-0.739,0.972,48.096,64.941,-43.823
0.046,-0.854,0.896,53.650,66.162,-40.222
0.236,-0.971,0.780,54.321,65.796,-34.363
0.410,-1.066,0.656,47.424,60.547,-30.090
0.505,-1.055,0.587,30.640,44.312,-33.142
0.424,-0.935,0.608,5.737,14.526,-46.143
0.214,-0.769,0.700,-20.386,-18.982,-64.758
-0.075,-0.570,0.820,-40.527,-47.974,-77.759
-0.419,-0.462,1.044,-52.063,-69.580,-84.229
-0.614,-0.415,1.245,-49.805,-69.092,-75.134
-0.575,-0.402,1.322,-27.771,-47.607,-49.438
-0.468,-0.459,1.274,5.310,-29.541,-28.748
-0.391,-0.465,1.107,35.400,-19.714,-23.865
-0.316,-0.454,0.933,52.612,-9.644,-26.062
-0.266,-0.487,0.833,53.772,2.441,-25.940
-0.205,-0.523,0.763,46.753,16.724,-20.630
-0.125,-0.528,0.682,37.354,28.870,-11.963
-0.046,-0.512,0.619,27.954,31.311,-0.183
0.055,-0.468,0.596,19.531,26.550,13.123
0.115,-0.442,0.604,12.817,19.287,21.851
0.167,-0.421,0.610,6.348,11.719,24.475
0.196,-0.395,0.640,-3.235,4.761,23.560
0.187,-0.367,0.698,-16.113,0.061,21.545
0.178,-0.314,0.771,-28.992,-2.441,20.447
0.169,-0.268,0.867,-39.185,-5.249,21.118
0.150,-0.228,0.956,-43.335,-9.399,22.583
0.136,-0.202,1.024,-41.260,-13.123,24.231
0.134,-0.171,1.075,-35.034,-15.564,25.879
0.161,-0.147,1.111,-27.893,-16.418,27.100
0.198,-0.126,1.123,-21.118,-14.587,26.672
0.235,-0.110,1.114,-15.320,-10.376,23.804
0.267,-0.101,1.084,-10.681,-5.188,19.714
0.287,-0.088,1.046,-6.836,-0.610,15.015
0.302,-0.083,1.012,-4.578,1.831,10.437
0.315,-0.079,0.987,-3.540,3.235,6.592
0.313,-0.088,0.974,-2.808,3.052,2.991
0.300,-0.092,0.958,-2.625,2.930,0.061
0.272,-0.106,0.954,-2.136,3.418,-2.319
0.219,-0.127,0.964,-1.465,3.052,-4.517
0.173,-0.145,0.975,-1.404,2.014,-5.310
0.143,-0.156,0.975,-1.404,0.793,-4.211
0.116,-0.161,0.977,-1.282,-0.793,-2.380
0.105,-0.163,0.988,-1.953,-3.418,-0.244
0.107,-0.154,0.996,-2.258,-4.944,2.502
0.120,-0.140,0.994,-1.953,-4.700,4.150
0.152,-0.121,0.989,-1.648,-3.113,5.188
0.172,-0.112,0.981,-1.038,-0.916,4.578
0.172,-0.106,0.957,0.488,1.099,1.831

-0.351,-1.158,1.109,17.761,-9.644,10.437
-0.435,-1.215,1.041,17.944,-4.211,11.597
-0.505,-1.267,0.960,15.076,0.366,15.381
-0.582,-1.332,0.888,9.888,2.686,25.330
-0.641,-1.390,0.833,2.380,2.686,40.100
-0.695,-1.411,0.765,-5.127,0.793,56.946
-0.713,-1.384,0.678,-11.597,-2.380,77.454
-0.725,-1.295,0.567,-20.264,-7.385,103.088
-0.709,-1.142,0.447,-33.630,-12.573,133.789
-0.699,-0.932,0.326,-52.368,-19.348,163.757
-0.685,-0.639,0.204,-75.378,-27.161,190.186
-0.587,-0.214,0.089,-97.290,-35.706,213.074
-0.482,0.219,0.066,-112.854,-50.720,228.821
-0.362,0.674,0.119,-118.835,-72.021,234.436
-0.193,1.146,0.211,-115.906,-93.262,227.173
-0.061,1.511,0.319,-106.445,-106.262,207.031
-0.042,1.782,0.394,-95.947,-102.600,177.002
-0.088,1.971,0.405,-89.355,-80.566,139.893
-0.127,2.124,0.381,-92.041,-47.791,106.201
-0.047,2.249,0.402,-106.323,-15.869,88.440
0.085,2.315,0.495,-124.573,5.005,89.172
0.242,2.411,0.688,-139.465,14.038,98.999
0.386,2.529,1.007,-150.391,0.244,105.896
0.553,2.629,1.409,-151.123,-25.818,108.337
0.763,2.642,1.755,-136.475,-35.339,105.042
0.975,2.543,1.895,-107.910,-14.282,89.478
1.115,2.368,1.797,-67.017,27.466,57.129
1.096,2.119,1.559,-15.320,58.899,15.930
0.948,1.801,1.298,33.447,59.326,-22.400
0.793,1.508,1.043,71.411,43.213,-48.035
0.675,1.286,0.831,96.313,27.466,-59.631
0.584,1.094,0.688,107.056,13.306,-65.796
0.477,0.972,0.622,104.248,0.000,-73.242
0.370,0.891,0.607,93.628,-7.202,-80.322
0.286,0.843,0.619,81.421,-6.104,-83.618
0.257,0.854,0.641,69.336,-2.075,-82.764
0.256,0.917,0.671,58.899,2.258,-80.872
0.274,1.019,0.703,52.368,5.005,-80.627
0.251,1.090,0.752,50.903,5.615,-83.313
0.210,1.130,0.793,54.993,5.249,-86.853
0.199,1.095,0.817,61.890,5.615,-88.867
0.228,0.997,0.800,69.946,10.437,-90.881
0.238,0.872,0.740,78.308,15.930,-95.093
0.227,0.734,0.674,84.290,16.052,-101.440
0.192,0.602,0.626,86.121,11.841,-106.079
0.136,0.478,0.601,85.999,5.798,-108.093
0.069,0.388,0.611,82.886,-2.930,-106.995
-0.002,0.276,0.664,76.660,-11.658,-103.455
-0.054,0.167,0.732,70.740,-15.442,-99.182
-0.092,0.094,0.755,66.162,-15.686,-95.032
-0.099,0.035,0.758,61.829,-15.137,-89.233
-0.066,-0.018,0.769,56.763,-15.625,-82.825
-0.039,-0.083,0.805,50.781,-17.212,-76.538
-0.040,-0.140,0.857,45.715,-21.912,-71.838
-0.052,-0.178,0.914,41.992,-28.076,-67.505
-0.070,-0.233,0.984,38.940,-32.898,-63.354
-0.122,-0.264,1.025,37.109,-33.630,-61.279
-0.167,-0.276,1.056,35.461,-31.677,-59.998
-0.208,-0.320,1.088,35.034,-26.367,-58.105
-0.256,-0.353,1.106,36.682,-20.508,-57.068
-0.295,-0.370,1.114,38.330,-17.029,-55.847
-0.299,-0.410,1.118,40.833,-10.376,-51.819
-0.299,-0.432,1.109,43.884,-0.549,-48.096
-0.255,-0.447,1.087,45.410,10.620,-46.021
-0.238,-0.477,1.069,44.739,24.475,-44.739
-0.231,-0.501,1.032,43.030,38.513,-45.715
-0.181,-0.540,1.031,38.757,48.157,-46.997
-0.124,-0.656,1.068,36.194,54.749,-46.143
-0.021,-0.809,1.029,39.307,63.232,-44.922
0.160,-0.954,0.941,41.504,67.566,-41.443
0.334,-1.045,0.848,36.560,61.646,-38.330
0.404,-1.049,0.776,25.574,46.631,-43.030
0.297,-0.944,0.743,11.658,22.156,-60.425
0.007,-0.686,0.777,-2.441,-11.719,-83.862
-0.289,-0.587,0.893,-11.292,-42.480,-98.877
-0.512,-0.557,1.035,-9.888,-55.176,-96.375
-0.568,-0.549,1.114,3.662,-52.612,-78.003
-0.530,-0.572,1.102,28.992,-48.157,-58.105
-0.511,-0.585,1.024,55.481,-48.828,-46.509
-0.475,-0.583,0.939,70.923,-43.762,-39.978
-0.433,-0.609,0.885,70.251,-27.771,-33.447
-0.370,-0.603,0.828,57.678,-5.432,-26.855
-0.291,-0.592,0.769,43.274,17.517,-16.724
-0.189,-0.575,0.718,30.396,33.569,-4.456
-0.093,-0.539,0.687,19.775,39.368,9.094
-0.011,-0.497,0.681,13.184,38.025,22.949
0.053,-0.447,0.683,10.681,31.616,32.166
0.124,-0.407,0.711,8.118,23.560,35.889
0.185,-0.390,0.741,1.831,19.775,36.255
0.231,-0.373,0.765,-6.470,18.677,33.813
0.251,-0.354,0.794,-15.137,17.090,29.602
0.248,-0.331,0.843,-22.156,12.634,26.917
0.240,-0.312,0.919,-26.550,3.784,25.940
0.217,-0.274,0.984,-27.893,-6.592,25.940
0.196,-0.238,1.036,-26.489,-14.832,25.085
0.176,-0.210,1.086,-24.109,-17.883,23.132
0.171,-0.195,1.111,-20.508,-16.052,20.386
0.165,-0.193,1.128,-16.602,-12.085,16.663
0.173,-0.197,1.119,-12.085,-8.179,12.878
0.192,-0.205,1.085,-6.470,-4.089,10.925
0.205,-0.215,1.047,-1.038,-2.014,8.667
0.217,-0.222,1.000,1.892,0.488,6.714
0.231,-0.219,0.956,2.930,4.639,6.165
0.244,-0.219,0.921,1.770,8.484,6.470
0.250,-0.223,0.890,0.793,10.803,6.531
0.254,-0.212,0.859,-0.183,10.681,6.165
0.254,-0.204,0.838,-1.465,8.972,5.676
0.234,-0.203,0.845,-2.625,6.348,4.578
0.217,-0.195,0.856,-3.845,3.845,2.808
0.196,-0.197,0.897,-5.737,1.709,1.343
0.175,-0.200,0.932,-5.798,1.526,0.793
0.157,-0.202,0.943,-5.371,2.075,-0.305
0.146,-0.203,0.942,-4.578,1.770,-2.197
0.134,-0.209,0.953,-4.822,0.793,-3.052
0.124,-0.217,0.961,-5.005,-0.061,-2.808
0.130,-0.214,0.953,-3.845,-0.793,-1.892
0.151,-0.203,0.938,-2.625,-1.770,-0.366
0.160,-0.199,0.934,-3.113,-2.197,1.038
0.170,-0.191,0.925,-3.662,-1.953,2.136

-0.384,-1.114,1.139,0.305,-9.949,-1.221
-0.489,-1.176,1.113,1.099,-12.756,1.526
-0.574,-1.238,1.099,-1.526,-14.404,7.629
-0.634,-1.300,1.092,-6.836,-11.108,17.761
-0.679,-1.346,1.083,-11.597,-7.324,30.090
-0.689,-1.342,1.012,-11.536,-3.662,42.847
-0.676,-1.319,0.908,-9.766,-0.549,57.678
-0.694,-1.264,0.800,-11.902,-0.183,74.768
-0.716,-1.191,0.702,-20.447,-2.319,92.468
-0.720,-1.096,0.619,-34.241,-4.150,111.206
-0.696,-0.966,0.556,-52.185,-5.310,131.165
-0.667,-0.746,0.524,-71.533,-8.301,150.452
-0.645,-0.517,0.520,-84.167,-16.235,166.138
-0.576,-0.278,0.523,-82.520,-26.855,173.706
-0.485,0.008,0.499,-69.336,-38.147,174.744
-0.407,0.328,0.456,-56.580,-50.232,170.776
-0.360,0.625,0.419,-47.668,-59.753,164.978
-0.299,0.876,0.385,-36.926,-66.650,160.095
-0.267,1.116,0.340,-25.391,-73.914,157.715
-0.215,1.455,0.259,-21.362,-78.308,155.396
-0.028,1.835,0.192,-33.264,-69.580,146.790
0.123,2.101,0.200,-62.317,-43.945,126.160
0.180,2.202,0.240,-100.281,-9.277,100.769
0.260,2.196,0.290,-135.071,18.066,87.341
0.367,2.224,0.440,-160.706,22.095,94.727
0.506,2.309,0.775,-183.350,-5.859,115.356
0.665,2.417,1.235,-201.782,-35.767,133.057
0.816,2.495,1.671,-207.153,-43.945,136.292
0.937,2.498,1.902,-190.796,-25.024,121.521
1.013,2.332,1.879,-150.940,11.108,91.003
0.993,2.022,1.697,-90.759,40.222,54.138
0.860,1.679,1.474,-23.071,45.715,17.883
0.686,1.406,1.220,30.640,33.875,-12.329
0.579,1.174,0.987,62.805,24.170,-28.931
0.517,0.974,0.811,77.332,23.193,-35.034
0.449,0.821,0.690,78.796,18.250,-41.199
0.370,0.716,0.634,72.876,11.047,-47.791
0.304,0.642,0.612,65.125,5.432,-49.377
0.277,0.619,0.621,58.655,1.099,-47.546
0.266,0.657,0.668,50.964,-3.174,-45.166
0.242,0.725,0.728,42.725,-4.944,-44.189
0.252,0.837,0.751,36.926,-0.732,-44.678
0.314,0.913,0.762,33.997,9.338,-47.546
0.370,0.902,0.751,34.485,22.949,-53.284
0.417,0.865,0.713,38.147,30.884,-61.340
0.410,0.790,0.687,43.640,25.940,-69.092
0.360,0.723,0.682,49.866,11.169,-72.754
0.292,0.682,0.689,53.711,-6.042,-73.425
0.219,0.642,0.715,53.955,-19.836,-72.205
0.146,0.618,0.737,51.697,-26.733,-70.862
0.108,0.579,0.749,47.241,-29.907,-70.007
0.092,0.534,0.769,41.443,-30.640,-68.420
0.099,0.497,0.766,35.400,-29.297,-66.589
0.120,0.512,0.767,27.405,-29.114,-63.416
0.157,0.513,0.820,20.142,-31.555,-59.753
0.194,0.451,0.917,16.968,-33.875,-57.556
0.150,0.365,1.010,19.409,-36.621,-60.791
0.072,0.281,1.091,25.818,-41.016,-67.627
0.008,0.181,1.158,32.471,-42.480,-71.716
-0.066,0.113,1.196,37.964,-38.635,-72.937
-0.121,0.063,1.208,42.664,-31.677,-71.289
-0.149,0.014,1.192,47.485,-23.254,-68.054
-0.173,-0.016,1.183,50.232,-19.043,-65.674
-0.198,-0.051,1.164,51.819,-16.968,-63.171
-0.217,-0.096,1.142,55.603,-11.841,-62.195
-0.231,-0.126,1.091,59.204,-5.493,-61.584
-0.193,-0.169,1.041,60.181,0.000,-59.387
-0.166,-0.233,1.027,57.861,5.981,-56.702
-0.132,-0.300,1.005,54.443,14.587,-54.504
-0.106,-0.318,0.976,49.683,22.949,-51.270
-0.082,-0.338,0.965,43.274,26.917,-49.194
-0.088,-0.374,0.965,38.330,28.687,-48.523
-0.109,-0.369,0.958,34.546,26.672,-47.913
-0.108,-0.376,0.968,31.189,21.790,-45.349
-0.116,-0.402,0.982,33.020,18.799,-44.189
-0.142,-0.396,0.979,37.292,14.526,-47.668
-0.196,-0.403,1.014,41.748,12.878,-51.514
-0.235,-0.437,1.061,48.096,19.470,-52.795
-0.188,-0.504,1.061,55.481,32.959,-51.819
-0.084,-0.609,1.017,63.965,47.974,-53.345
0.009,-0.727,0.938,71.838,57.800,-58.899
0.116,-0.821,0.841,74.402,59.509,-67.993
0.161,-0.877,0.767,69.153,50.293,-77.881
0.077,-0.893,0.738,59.509,30.273,-88.684
-0.094,-0.804,0.735,48.035,1.587,-98.694
-0.310,-0.708,0.816,36.621,-27.649,-103.760
-0.477,-0.693,0.932,29.724,-47.241,-97.351
-0.510,-0.657,0.988,31.250,-52.795,-78.064
-0.467,-0.637,0.986,39.612,-52.185,-55.847
-0.457,-0.613,0.986,45.959,-49.377,-42.236
-0.453,-0.606,0.975,45.898,-37.354,-32.349
-0.372,-0.593,0.914,41.504,-13.672,-18.982
-0.256,-0.583,0.826,33.630,10.193,-6.348
-0.155,-0.550,0.726,23.499,27.527,3.174
-0.060,-0.505,0.642,13.794,34.851,12.390
-0.011,-0.472,0.620,6.836,31.982,22.339
0.032,-0.430,0.620,2.563,24.292,33.752
0.087,-0.395,0.640,-0.916,16.296,43.762
0.126,-0.353,0.690,-7.996,7.141,48.523
0.125,-0.329,0.757,-17.761,0.366,47.424
0.130,-0.296,0.802,-27.954,-2.319,44.861
0.139,-0.255,0.845,-37.781,-4.211,42.419
0.149,-0.221,0.890,-46.570,-6.836,39.917
0.144,-0.189,0.927,-53.406,-10.681,36.072
0.162,-0.132,0.963,-57.739,-13.977,33.081
0.183,-0.095,1.021,-59.265,-17.883,30.640
0.194,-0.065,1.079,-56.152,-22.400,27.405
0.203,-0.039,1.112,-47.852,-26.550,24.353
0.183,-0.018,1.153,-37.842,-27.283,20.508
0.174,-0.008,1.163,-29.236,-24.414,16.235
0.175,-0.002,1.146,-20.203,-17.578,12.634
0.193,0.000,1.129,-12.634,-10.864,9.155
0.194,-0.002,1.109,-7.202,-3.601,4.883
0.201,-0.026,1.067,-1.282,3.906,0.671
0.201,-0.056,1.018,4.761,9.033,-2.075
0.188,-0.092,0.987,8.850,9.766,-3.540
0.161,-0.121,0.961,10.925,8.362,-3.845
0.144,-0.139,0.934,11.658,6.226,-3.174
0.139,-0.151,0.914,10.803,3.906,-1.831

-0.379,-1.034,1.185,17.334,20.447,14.343
-0.401,-1.088,1.087,23.193,27.100,11.902
-0.413,-1.118,0.990,26.611,29.724,14.465
-0.430,-1.147,0.908,27.039,27.344,21.667
-0.451,-1.183,0.842,25.757,18.677,29.297
-0.462,-1.201,0.769,24.475,8.606,39.001
-0.480,-1.195,0.694,21.057,-0.183,50.598
-0.504,-1.203,0.638,14.038,-7.996,62.317
-0.536,-1.187,0.580,3.662,-14.099,76.416
-0.559,-1.140,0.536,-9.644,-19.104,94.604
-0.580,-1.051,0.470,-24.353,-22.827,114.868
-0.583,-0.890,0.362,-39.490,-26.611,134.338
-0.561,-0.645,0.234,-56.641,-32.166,152.466
-0.547,-0.368,0.125,-75.867,-38.208,169.250
-0.519,-0.007,0.034,-95.581,-46.509,185.730
-0.402,0.425,-0.004,-112.183,-58.716,199.219
-0.264,0.885,0.059,-127.014,-74.158,203.613
-0.207,1.290,0.182,-138.672,-83.374,192.993
-0.243,1.645,0.349,-145.569,-82.520,169.617
-0.273,1.931,0.454,-146.301,-68.787,147.522
-0.191,2.167,0.444,-141.968,-44.006,133.545
0.022,2.402,0.424,-143.005,-20.874,122.620
0.244,2.526,0.507,-154.724,-6.409,110.352
0.382,2.569,0.692,-170.410,-4.761,103.882
0.499,2.604,0.969,-179.382,-11.719,107.422
0.699,2.635,1.296,-176.208,-19.104,116.089
0.922,2.605,1.616,-163.879,-25.269,112.793
1.078,2.515,1.781,-135.071,-10.742,95.581
1.187,2.287,1.695,-86.365,20.813,65.613
1.153,2.016,1.440,-29.541,42.908,28.809
1.035,1.747,1.140,17.273,38.879,-2.625
0.931,1.486,0.906,49.133,22.888,-22.278
0.817,1.282,0.753,67.749,4.456,-33.997
0.663,1.124,0.690,75.562,-16.174,-42.847
0.542,1.039,0.682,76.904,-33.264,-48.889
0.470,1.022,0.692,74.585,-40.588,-53.162
0.419,1.044,0.699,69.153,-37.964,-56.885
0.382,1.078,0.704,61.340,-28.442,-62.256
0.346,1.139,0.698,52.429,-19.531,-67.322
0.359,1.231,0.688,45.349,-13.428,-70.740
0.384,1.321,0.694,42.419,-9.644,-73.914
0.402,1.312,0.738,44.556,-5.371,-79.285
0.396,1.251,0.748,52.307,-1.953,-85.999
0.311,1.193,0.710,64.758,-8.118,-93.811
0.227,1.138,0.663,77.515,-22.278,-97.961
0.125,1.032,0.651,87.158,-37.903,-98.145
0.025,0.921,0.660,93.567,-49.011,-98.572
-0.061,0.803,0.636,96.741,-52.734,-99.854
-0.065,0.709,0.615,94.177,-48.950,-99.976
-0.072,0.576,0.624,87.097,-40.100,-99.731
-0.078,0.417,0.625,78.186,-27.649,-101.074
-0.096,0.278,0.630,70.618,-20.508,-103.210
-0.141,0.168,0.648,64.880,-23.743,-106.445
-0.201,0.093,0.671,58.167,-31.372,-106.262
-0.237,0.030,0.712,50.476,-37.598,-100.403
-0.280,-0.075,0.799,44.067,-42.114,-92.896
-0.329,-0.148,0.887,37.476,-46.875,-86.304
-0.382,-0.205,0.982,32.349,-49.011,-79.651
-0.422,-0.269,1.076,29.480,-44.189,-73.181
-0.447,-0.297,1.139,28.381,-32.043,-67.139
-0.446,-0.333,1.185,28.503,-17.395,-62.744
-0.442,-0.361,1.213,29.785,-4.272,-60.669
-0.444,-0.402,1.264,31.921,3.784,-62.073
-0.484,-0.457,1.292,37.659,11.841,-67.993
-0.511,-0.484,1.294,46.021,21.057,-74.890
-0.563,-0.537,1.320,54.260,31.677,-80.139
-0.617,-0.602,1.322,62.500,46.509,-81.482
-0.617,-0.658,1.310,70.313,60.120,-79.773
-0.605,-0.717,1.284,78.552,69.580,-78.796
-0.606,-0.784,1.220,89.111,77.026,-80.322
-0.587,-0.843,1.118,99.365,81.909,-83.191
-0.523,-0.921,0.986,107.971,86.426,-84.717
-0.427,-1.023,0.820,116.638,88.806,-81.482
-0.306,-1.133,0.654,121.155,81.116,-74.036
-0.228,-1.198,0.527,116.333,61.646,-64.636
-0.215,-1.196,0.465,98.022,33.142,-55.847
-0.282,-1.088,0.490,67.993,0.305,-48.157
-0.380,-0.971,0.626,35.889,-31.860,-36.865
-0.460,-0.859,0.802,14.954,-54.443,-17.822
-0.490,-0.731,0.928,7.141,-64.209,3.906
-0.433,-0.599,0.989,5.676,-60.913,24.109
-0.310,-0.487,0.999,3.906,-45.044,39.856
-0.172,-0.389,0.972,-0.793,-23.865,47.729
-0.049,-0.294,0.918,-6.653,-4.028,49.866
0.034,-0.236,0.873,-10.925,10.498,50.110
0.100,-0.187,0.821,-12.085,19.104,50.964
0.171,-0.157,0.769,-10.071,23.132,52.979
0.234,-0.128,0.729,-7.263,22.644,54.626
0.290,-0.092,0.698,-7.263,19.531,54.138
0.326,-0.063,0.687,-9.949,17.334,50.049
0.348,-0.055,0.686,-13.977,17.395,42.664
0.380,-0.044,0.693,-18.494,18.372,35.278
0.397,-0.055,0.718,-23.560,17.334,27.161
0.385,-0.069,0.746,-26.794,11.963,18.616
0.364,-0.065,0.794,-29.236,2.930,11.108
0.312,-0.082,0.879,-31.433,-6.714,4.395
0.253,-0.093,0.970,-33.020,-14.709,-0.244
0.202,-0.092,1.058,-32.959,-19.653,-1.404
0.153,-0.094,1.146,-30.945,-20.081,-0.793
0.118,-0.103,1.202,-26.917,-16.113,-0.793
0.094,-0.112,1.216,-20.935,-8.667,-1.709
0.089,-0.130,1.190,-14.099,-1.160,-3.113
0.095,-0.155,1.140,-7.935,4.639,-5.432
0.110,-0.169,1.083,-3.052,9.399,-7.935
0.138,-0.186,1.035,0.610,13.611,-9.155
0.154,-0.206,0.985,2.930,17.029,-10.925
0.170,-0.224,0.916,4.395,19.531,-12.817
0.185,-0.240,0.850,4.639,20.325,-13.611
0.206,-0.251,0.793,3.113,18.005,-12.451
0.214,-0.258,0.765,-0.610,12.207,-10.315
0.205,-0.246,0.761,-6.226,5.615,-7.812
0.187,-0.228,0.790,-13.062,0.122,-4.822
0.160,-0.188,0.848,-20.203,-3.662,-2.319
0.142,-0.142,0.908,-26.062,-6.287,0.427
0.135,-0.096,0.957,-29.236,-8.362,3.784
0.143,-0.052,0.995,-30.457,-9.888,6.714
0.160,-0.011,1.020,-30.701,-10.681,8.545
0.164,0.016,1.045,-30.334,-10.071,7.935
0.161,0.038,1.065,-29.541,-7.751,5.493

-0.433,-1.103,1.100,25.085,7.019,19.836
-0.477,-1.182,1.064,28.870,6.897,20.630
-0.514,-1.269,0.995,31.982,9.216,22.583
-0.531,-1.339,0.897,33.081,9.888,28.442
-0.549,-1.366,0.797,29.785,5.798,39.001
-0.557,-1.377,0.712,21.362,1.343,53.284
-0.570,-1.362,0.643,10.010,-1.526,69.946
-0.559,-1.348,0.611,-5.249,-2.930,86.609
-0.563,-1.312,0.596,-23.193,-1.953,102.722
-0.579,-1.240,0.554,-40.527,0.732,117.798
-0.583,-1.129,0.498,-55.786,1.892,132.568
-0.579,-1.001,0.438,-70.740,2.258,149.963
-0.566,-0.857,0.364,-85.815,2.197,166.565
-0.544,-0.623,0.256,-99.731,-0.366,182.434
-0.469,-0.298,0.146,-111.450,-6.958,197.815
-0.396,0.047,0.119,-121.216,-20.691,208.313
-0.346,0.404,0.146,-127.502,-36.865,210.632
-0.273,0.796,0.188,-130.005,-47.668,205.261
-0.184,1.179,0.281,-127.747,-50.842,192.505
-0.148,1.490,0.394,-118.958,-47.058,176.514
-0.101,1.774,0.400,-103.394,-35.828,161.438
-0.003,2.011,0.310,-85.571,-21.423,143.616
0.136,2.173,0.244,-76.660,-10.742,124.634
0.211,2.224,0.278,-83.374,-3.235,109.619
0.254,2.171,0.420,-101.196,2.136,101.501
0.299,2.214,0.646,-124.390,-1.709,102.478
0.476,2.419,1.001,-144.836,-10.620,109.558
0.758,2.582,1.381,-151.306,-11.658,117.432
1.051,2.681,1.669,-136.353,-2.808,110.474
1.249,2.607,1.753,-97.900,15.930,84.412
1.296,2.365,1.614,-43.396,34.119,44.189
1.119,2.046,1.417,7.141,32.837,0.000
0.898,1.724,1.232,44.128,23.621,-33.142
0.723,1.450,1.070,68.298,17.944,-50.964
0.574,1.220,0.934,82.153,10.437,-59.814
0.470,1.042,0.818,88.928,-1.709,-67.078
0.360,0.901,0.746,90.149,-11.963,-74.463
0.276,0.793,0.700,85.449,-17.944,-79.712
0.214,0.721,0.677,76.294,-16.602,-81.482
0.182,0.729,0.696,63.782,-9.888,-79.346
0.185,0.788,0.736,50.598,-1.831,-74.158
0.178,0.842,0.768,42.114,4.272,-69.885
0.210,0.920,0.792,39.429,5.798,-69.214
0.229,0.976,0.830,40.527,4.089,-71.716
0.214,0.992,0.849,44.983,3.662,-75.073
0.170,0.980,0.837,52.917,2.563,-79.163
0.147,0.963,0.786,62.256,-1.709,-82.703
0.146,0.947,0.724,69.397,-7.324,-84.290
0.143,0.899,0.671,71.289,-10.559,-85.999
0.145,0.814,0.666,68.542,-11.353,-89.233
0.127,0.686,0.683,64.941,-10.193,-93.750
0.144,0.545,0.702,61.707,-10.498,-95.581
0.109,0.404,0.744,60.364,-16.235,-96.191
0.059,0.305,0.759,61.340,-24.048,-97.046
0.029,0.227,0.774,60.486,-33.020,-95.886
-0.020,0.172,0.802,56.274,-39.795,-92.346
-0.072,0.135,0.873,49.744,-44.189,-86.792
-0.147,0.086,0.958,43.457,-45.410,-80.872
-0.182,0.097,0.999,39.978,-41.748,-75.500
-0.169,0.110,1.030,38.147,-35.645,-69.946
-0.150,0.075,1.066,38.269,-25.391,-65.857
-0.142,0.034,1.063,41.992,-11.230,-64.758
-0.108,-0.012,1.049,47.119,0.427,-64.697
-0.098,-0.102,1.049,53.406,8.850,-66.895
-0.115,-0.214,1.047,61.646,15.381,-71.594
-0.145,-0.307,1.026,70.984,18.066,-76.172
-0.153,-0.354,1.013,77.209,16.235,-78.674
-0.195,-0.429,1.048,79.712,16.296,-80.505
-0.275,-0.539,1.046,81.970,25.269,-81.360
-0.324,-0.605,1.034,80.261,34.790,-81.055
-0.333,-0.678,1.058,73.364,41.931,-80.566
-0.400,-0.766,1.065,68.542,53.894,-81.909
-0.466,-0.862,1.021,66.650,67.017,-88.135
-0.486,-0.953,0.974,66.162,79.346,-91.980
-0.494,-1.050,0.904,68.420,89.294,-90.820
-0.474,-1.158,0.778,76.233,92.896,-85.876
-0.413,-1.248,0.630,84.473,86.609,-78.308
-0.358,-1.347,0.517,88.501,71.411,-68.665
-0.335,-1.419,0.447,83.557,51.453,-57.861
-0.316,-1.415,0.438,66.345,27.954,-45.593
-0.339,-1.321,0.506,39.612,2.441,-32.410
-0.367,-1.150,0.636,12.634,-22.705,-17.639
-0.362,-0.969,0.821,-8.057,-44.678,-0.488
-0.342,-0.802,0.994,-20.813,-54.688,18.921
-0.261,-0.617,1.085,-26.306,-49.927,36.926
-0.119,-0.466,1.107,-26.733,-36.804,50.842
0.017,-0.346,1.088,-24.719,-21.729,58.105
0.143,-0.253,1.040,-22.217,-7.874,59.448
0.244,-0.179,0.997,-18.616,3.418,59.143
0.313,-0.129,0.939,-13.916,10.681,57.495
0.375,-0.091,0.867,-7.080,14.282,54.504
0.428,-0.069,0.798,-0.122,14.648,50.659
0.468,-0.072,0.749,3.357,13.977,44.861
0.497,-0.071,0.709,3.357,14.526,37.354
0.512,-0.078,0.687,-0.183,14.465,29.663
0.513,-0.097,0.685,-5.371,12.634,21.729
0.505,-0.108,0.694,-9.949,8.911,14.465
0.491,-0.119,0.722,-14.038,3.967,7.751
0.458,-0.138,0.777,-17.090,-0.977,1.099
0.400,-0.163,0.842,-18.677,-5.371,-6.409
0.333,-0.187,0.903,-19.043,-9.827,-15.259
0.271,-0.213,0.958,-18.433,-12.573,-22.827
0.188,-0.242,1.009,-16.113,-13.306,-27.039
0.128,-0.273,1.064,-12.695,-12.878,-26.245
0.091,-0.294,1.101,-9.277,-12.329,-21.667
0.069,-0.294,1.120,-4.883,-11.353,-15.991
0.059,-0.289,1.115,-1.526,-9.277,-10.742
0.076,-0.268,1.101,-0.427,-5.310,-5.676
0.115,-0.250,1.086,-0.916,0.671,-1.892
0.150,-0.226,1.055,-1.343,6.287,-0.977
0.181,-0.213,1.018,0.244,9.094,-1.160
0.200,-0.210,0.979,3.540,8.362,-1.221
0.214,-0.209,0.936,7.141,5.859,-0.977
0.237,-0.194,0.902,8.484,2.014,-0.610
0.250,-0.189,0.894,7.629,-1.160,-0.305
0.242,-0.191,0.897,6.653,-3.540,-0.244
0.228,-0.189,0.904,5.676,-6.104,-0.549
0.218,-0.185,0.915,3.662,-7.629,-0.427
0.212,-0.188,0.927,1.648,-6.531,0.610

0.282,2.331,0.559,-137.451,-6.897,90.271
0.481,2.517,0.809,-161.743,3.662,95.337
0.731,2.802,1.237,-175.049,-11.292,104.187
1.007,3.027,1.707,-168.396,-24.536,111.938
1.230,3.003,2.053,-143.433,-26.794,97.534
1.307,2.756,2.125,-96.802,-3.662,61.401
1.244,2.391,1.878,-29.785,33.691,15.503
1.045,2.025,1.493,37.109,54.871,-30.029
0.839,1.628,1.109,82.886,53.955,-62.561
0.672,1.277,0.808,109.436,41.748,-77.393
0.537,0.984,0.605,121.094,21.179,-84.229
0.409,0.827,0.497,117.310,-5.371,-88.928
0.309,0.775,0.480,102.966,-27.527,-91.309
0.231,0.794,0.518,83.313,-35.828,-89.417
0.204,0.852,0.571,63.416,-31.372,-85.693
0.197,0.916,0.616,48.706,-19.348,-83.313
0.209,0.963,0.646,40.649,-7.629,-85.022
0.214,0.987,0.681,38.574,-1.770,-88.257
0.219,0.979,0.711,41.382,0.488,-91.248
0.222,0.944,0.720,48.340,0.977,-93.201
0.213,0.928,0.699,56.213,-2.747,-96.375
0.177,0.907,0.670,62.561,-11.414,-101.501
0.127,0.866,0.643,65.918,-20.264,-105.774
0.091,0.802,0.612,68.298,-25.635,-107.605
0.087,0.740,0.579,69.214,-28.809,-108.337
0.082,0.635,0.581,67.261,-29.480,-108.948
0.060,0.484,0.611,64.026,-27.649,-110.107
0.043,0.335,0.618,61.340,-25.146,-112.183
0.024,0.223,0.616,58.533,-25.146,-112.610
0.006,0.127,0.634,53.284,-30.151,-109.985
-0.022,0.027,0.675,46.143,-37.537,-104.675
-0.072,-0.014,0.704,39.307,-46.631,-98.694
-0.107,-0.033,0.762,29.785,-57.861,-90.698
-0.157,-0.089,0.883,19.470,-65.186,-81.238
-0.255,-0.151,1.021,12.451,-65.186,-74.280
-0.353,-0.157,1.117,10.071,-59.021,-69.397
-0.364,-0.149,1.178,9.277,-48.340,-60.608
-0.303,-0.168,1.218,9.155,-31.555,-49.072
-0.245,-0.243,1.225,11.414,-10.925,-43.335
-0.228,-0.286,1.214,14.954,2.808,-45.044
-0.209,-0.317,1.223,17.700,9.705,-49.805
-0.218,-0.360,1.238,21.484,16.968,-56.335
-0.235,-0.422,1.251,27.710,28.625,-63.721
-0.260,-0.501,1.266,33.569,42.236,-71.167
-0.271,-0.550,1.278,36.926,55.054,-78.064
-0.322,-0.630,1.276,42.114,68.787,-84.717
-0.351,-0.706,1.240,48.584,82.153,-92.651
-0.378,-0.791,1.179,56.274,92.834,-98.083
-0.428,-0.867,1.109,64.209,94.360,-99.304
-0.459,-0.936,1.020,73.486,89.294,-98.267
-0.499,-1.022,0.924,84.595,80.872,-93.811
-0.502,-1.107,0.821,92.224,68.665,-86.182
-0.463,-1.189,0.728,93.079,55.847,-74.036
-0.392,-1.238,0.645,87.280,43.274,-58.472
-0.304,-1.229,0.593,72.510,29.053,-44.189
-0.230,-1.190,0.603,50.171,13.428,-32.654
-0.198,-1.085,0.668,22.827,-1.709,-22.156
-0.169,-0.931,0.748,-4.211,-14.282,-11.780
-0.161,-0.763,0.849,-25.513,-24.353,-0.671
-0.163,-0.611,0.969,-38.452,-32.104,11.108
-0.129,-0.482,1.067,-41.870,-37.354,25.269
-0.051,-0.355,1.120,-38.635,-37.964,38.086
0.035,-0.249,1.125,-33.691,-31.494,45.898
0.104,-0.150,1.107,-31.555,-18.921,47.791
0.191,-0.073,1.048,-29.846,-0.610,47.180
0.301,-0.005,0.973,-26.245,17.517,45.532
0.394,0.032,0.888,-21.545,30.823,41.992
0.450,0.045,0.813,-16.296,36.926,36.316
0.481,0.057,0.750,-11.292,34.668,29.419
0.490,0.045,0.717,-6.287,25.391,23.315
0.479,0.017,0.702,-0.427,14.587,18.860
0.459,-0.020,0.694,4.761,5.676,13.794
0.429,-0.065,0.688,7.263,0.122,6.775
0.385,-0.119,0.703,4.944,-1.892,-0.305
0.328,-0.170,0.741,-2.075,-1.282,-5.920
0.266,-0.213,0.777,-9.949,0.366,-9.644
0.215,-0.249,0.822,-15.991,-0.549,-10.559
0.166,-0.274,0.880,-21.118,-4.639,-8.423
0.133,-0.270,0.928,-25.146,-8.972,-4.456
0.128,-0.248,0.973,-27.161,-11.719,0.183
0.125,-0.222,1.030,-28.503,-12.695,4.517
0.117,-0.204,1.088,-28.442,-10.864,7.629
0.123,-0.186,1.117,-25.879,-7.080,9.583
0.142,-0.156,1.131,-22.156,-3.723,11.047
0.161,-0.146,1.124,-17.822,-0.305,13.123
0.192,-0.136,1.095,-13.000,2.197,14.343
0.237,-0.122,1.062,-9.705,2.747,14.832
0.263,-0.113,1.036,-8.484,2.991,14.587
0.281,-0.103,1.004,-7.446,3.540,12.817
0.296,-0.091,0.963,-6.958,3.235,10.071
0.305,-0.083,0.937,-6.409,1.343,7.874
0.299,-0.085,0.928,-6.042,-0.977,5.859
0.275,-0.085,0.917,-5.920,-3.235,3.418
0.258,-0.079,0.918,-6.165,-6.042,2.563
0.243,-0.079,0.937,-7.385,-8.789,4.272
0.224,-0.068,0.956,-7.874,-10.254,6.409
0.218,-0.060,0.963,-7.141,-9.583,7.751
0.210,-0.056,0.961,-6.348,-7.812,7.568
0.201,-0.055,0.954,-5.310,-5.676,5.737
0.191,-0.061,0.949,-5.005,-3.052,2.930
0.190,-0.068,0.943,-5.005,-0.610,0.916
0.201,-0.063,0.935,-5.066,1.404,0.122
0.207,-0.064,0.940,-4.578,1.648,-0.488
0.206,-0.066,0.951,-4.456,0.854,-0.977
0.203,-0.068,0.961,-4.150,0.427,-1.099
0.195,-0.073,0.968,-3.052,-0.122,-1.343
0.183,-0.085,0.966,-1.404,-1.160,-1.953
0.167,-0.104,0.968,0.366,-1.831,-2.136
0.146,-0.116,0.966,0.854,-2.686,-2.319
0.138,-0.130,0.961,0.854,-2.258,-1.770
0.139,-0.135,0.958,0.061,-1.526,0.244
0.161,-0.118,0.961,-2.380,-0.916,3.723
0.188,-0.101,0.974,-4.700,-1.404,7.019
0.203,-0.080,0.982,-5.249,-2.686,8.667
0.217,-0.061,0.990,-5.005,-4.150,9.155
0.229,-0.049,0.995,-4.578,-3.723,9.094
0.244,-0.040,0.984,-3.540,-1.587,8.057
0.261,-0.032,0.965,-3.357,0.366,6.470
0.278,-0.025,0.951,-3.479,2.380,4.639

-0.450,-1.042,1.404,17.395,8.423,13.855
-0.503,-1.174,1.384,22.156,15.991,15.503
-0.536,-1.277,1.321,26.306,23.193,19.043
-0.556,-1.341,1.222,28.625,27.649,26.733
-0.580,-1.428,1.143,27.405,27.954,38.574
-0.601,-1.496,1.045,23.132,25.146,50.720
-0.614,-1.500,0.937,14.648,21.973,65.552
-0.589,-1.495,0.854,2.747,16.296,86.426
-0.554,-1.449,0.796,-12.451,12.390,111.450
-0.528,-1.333,0.736,-29.846,10.498,136.230
-0.502,-1.187,0.674,-47.058,9.155,158.569
-0.497,-1.017,0.602,-63.354,8.240,176.758
-0.486,-0.801,0.484,-77.637,7.874,191.284
-0.418,-0.531,0.368,-88.745,6.226,203.674
-0.404,-0.275,0.290,-95.337,1.099,212.708
-0.335,0.094,0.186,-96.619,-5.920,217.957
-0.203,0.499,0.101,-89.600,-19.104,218.567
-0.139,0.860,0.065,-75.684,-39.246,212.952
-0.094,1.198,0.081,-61.707,-58.289,198.120
-0.114,1.533,0.106,-52.673,-64.331,172.424
-0.143,1.816,0.079,-51.575,-51.758,145.020
-0.147,2.073,-0.030,-56.824,-24.780,122.864
0.049,2.261,-0.149,-68.542,3.235,110.413
0.336,2.394,-0.198,-93.384,25.208,111.511
0.653,2.504,-0.104,-134.338,40.955,126.282
0.889,2.738,0.141,-178.894,32.593,141.052
1.147,3.040,0.595,-208.191,8.423,149.048
1.373,3.251,1.198,-212.219,-18.738,144.958
1.563,3.226,1.720,-184.753,-30.029,121.704
1.566,2.999,1.918,-125.305,-14.771,78.918
1.392,2.655,1.751,-44.250,8.850,20.325
1.058,2.251,1.433,30.518,13.245,-37.292
0.762,1.843,1.106,83.984,7.629,-75.623
0.534,1.512,0.818,119.202,0.671,-90.698
0.329,1.239,0.604,135.864,-15.503,-94.727
0.199,1.056,0.487,136.780,-33.875,-97.412
0.129,0.992,0.431,126.526,-41.870,-96.985
0.110,0.944,0.402,109.802,-38.574,-91.919
0.121,0.897,0.393,93.750,-24.780,-86.121
0.158,0.869,0.386,79.285,-13.062,-83.130
0.189,0.868,0.366,66.345,-9.216,-81.421
0.214,0.942,0.322,57.312,-10.986,-79.834
0.227,1.082,0.309,50.720,-19.653,-79.407
0.158,1.129,0.371,46.570,-34.607,-77.820
0.156,1.214,0.446,46.143,-47.119,-74.768
0.157,1.259,0.540,48.401,-54.321,-76.782
0.187,1.177,0.636,53.955,-52.246,-81.787
0.232,1.004,0.678,62.500,-43.274,-90.759
0.239,0.849,0.666,77.393,-34.363,-101.135
0.214,0.702,0.566,95.215,-32.593,-108.948
0.104,0.495,0.504,104.126,-31.494,-114.563
-0.022,0.316,0.509,101.257,-25.513,-112.122
-0.076,0.189,0.563,89.600,-19.226,-99.243
-0.090,0.078,0.654,75.623,-20.569,-86.548
-0.139,-0.029,0.768,63.110,-29.480,-81.055
-0.187,-0.147,0.900,54.382,-36.499,-80.383
-0.252,-0.305,1.004,49.622,-33.447,-80.017
-0.249,-0.418,1.100,47.302,-21.790,-73.975
-0.216,-0.445,1.202,45.593,-11.475,-67.200
-0.231,-0.452,1.296,45.288,-7.568,-64.453
-0.274,-0.474,1.367,48.523,-3.906,-65.125
-0.341,-0.516,1.425,55.603,5.066,-68.787
-0.430,-0.532,1.469,62.622,20.569,-72.083
-0.510,-0.565,1.483,65.552,42.114,-76.660
-0.629,-0.764,1.562,68.237,67.871,-93.689
-0.698,-1.013,1.572,71.716,94.421,-119.019
-0.755,-1.192,1.461,72.693,112.000,-135.376
-0.839,-1.410,1.328,83.008,122.803,-147.034
-1.021,-1.588,1.144,100.281,125.732,-147.766
-0.959,-1.698,0.911,112.915,124.084,-129.761
-0.909,-1.696,0.729,114.929,121.338,-85.938
-0.709,-1.549,0.667,106.140,98.755,-44.189
-0.484,-1.417,0.656,94.238,55.298,-23.865
-0.271,-1.321,0.602,79.651,23.621,-8.606
-0.100,-1.224,0.591,59.937,8.667,14.099
0.051,-1.074,0.596,39.795,-2.075,35.461
0.193,-0.960,0.661,24.536,-11.414,52.002
0.323,-0.794,0.764,15.930,-17.395,67.261
0.440,-0.570,0.902,12.146,-10.925,81.055
0.483,-0.349,0.954,16.479,-2.502,83.557
0.528,-0.103,0.942,28.564,-2.014,78.247
0.645,0.079,1.012,37.781,-9.827,67.383
0.627,0.024,0.974,32.959,-4.700,53.345
0.614,-0.018,0.938,20.874,7.141,34.912
0.605,-0.034,0.975,12.817,8.240,20.325
0.574,-0.043,1.035,16.052,3.967,6.775
0.551,-0.082,0.992,27.649,2.930,-4.272
0.536,-0.156,0.877,38.025,3.906,-12.817
0.490,-0.265,0.803,40.100,1.282,-20.447
0.333,-0.269,0.872,34.668,0.793,-27.649
0.342,-0.357,0.722,26.367,14.893,-30.884
0.296,-0.510,0.696,26.367,22.095,-29.358
0.241,-0.485,0.620,27.588,23.682,-24.780
0.192,-0.474,0.620,28.015,23.193,-19.287
0.194,-0.524,0.622,25.940,24.597,-15.930
0.200,-0.507,0.626,21.484,25.024,-9.277
0.204,-0.554,0.592,17.822,21.118,-3.967
0.177,-0.547,0.594,15.564,16.357,2.136
0.115,-0.508,0.681,10.193,13.000,7.446
0.150,-0.516,0.704,3.296,11.902,13.794
0.156,-0.421,0.850,4.578,8.484,19.104
0.154,-0.356,0.951,10.803,11.292,13.672
0.155,-0.348,0.880,16.602,19.653,10.498
0.176,-0.401,0.828,22.644,24.414,11.719
0.177,-0.464,0.752,17.273,23.254,12.756
0.162,-0.479,0.778,2.502,18.555,12.573
0.151,-0.489,0.826,-13.000,15.625,12.939
0.162,-0.477,0.792,-18.372,12.756,15.442
0.135,-0.536,0.858,-14.648,11.292,17.578
0.152,-0.562,0.798,-18.860,13.977,20.325
0.185,-0.538,0.794,-26.184,17.822,22.888
0.150,-0.566,0.807,-24.963,20.264,22.644
0.187,-0.578,0.741,-17.395,18.250,24.963
0.222,-0.540,0.813,-3.540,15.198,27.161
0.156,-0.515,0.858,16.052,19.531,22.888
0.092,-0.595,0.857,37.903,29.846,21.484
0.230,-0.658,0.767,49.500,33.691,26.794
0.077,-0.659,0.697,48.462,33.020,42.297
0.167,-0.753,0.633,30.151,25.696,52.551